Timestamps(ms),AccelX,AccelY,AccelZ
2011,-0.3903,1.0918,10.9918
2091,-0.3879,1.0726,11.0038
2101,-0.3184,1.2450,10.9223
2111,-0.4262,1.1947,11.1067
2121,-0.3711,1.1660,10.9176
2131,-0.3807,1.2522,10.9630
2141,-0.4166,1.2186,10.9702
2151,-0.3950,1.1947,10.8816
2221,-0.2945,1.0894,11.1091
2231,-0.4357,1.1349,11.1857
2241,-0.4429,1.2354,10.7763
2251,-0.3687,1.1732,11.1761
2261,-0.4022,1.1564,10.9774
2271,-0.4118,1.2019,10.9630
2281,-0.4070,1.1779,10.9295
2359,-0.4884,1.2665,10.9678
2369,-0.3472,1.0582,11.0445
2379,-0.3543,1.2067,10.7524
2389,-0.3663,1.1372,10.9846
2399,-0.3041,1.1540,11.0301
2409,-0.4717,1.2833,10.8290
2419,-0.4549,1.1109,11.0373
2500,-0.3376,1.1779,10.8984
2510,-0.3998,1.1540,11.0612
2520,-0.3711,1.1875,10.7859
2530,-0.3783,1.1444,11.0133
2540,-0.3663,1.2210,10.8697
2550,-0.3136,1.0080,11.0636
2560,-0.4860,1.2330,10.9630
2637,-0.3711,1.1372,11.0468
2647,-0.4597,1.2426,10.6829
2657,-0.2897,1.0175,11.2049
2667,-0.2945,1.2450,10.8960
2677,-0.3639,1.0965,10.8433
2687,-0.3304,1.2402,10.9846
2697,-0.3448,1.1277,10.9822
2770,-0.4214,1.2354,11.0229
2780,-0.4118,1.2474,11.0157
2790,-0.3687,1.1492,11.0492
2800,-0.4334,1.2570,10.8122
2810,-0.3926,1.1205,11.0133
2820,-0.4166,1.1875,11.0301
2830,-0.4022,1.1995,10.9056
2840,-0.3519,1.1277,11.0253
2923,-0.4381,1.1708,10.9367
2933,-0.3879,1.1516,11.0397
2943,-0.3711,1.2043,10.9942
2953,-0.3711,1.1827,10.9798
2963,-0.3663,1.1516,11.0373
2973,-0.4022,1.1660,10.9295
2983,-0.3400,1.1851,10.9535
3064,-0.3687,1.1396,11.0660
3074,-0.3831,1.1468,10.9702
3084,-0.3376,1.1851,10.9583
3094,-0.3879,1.1756,10.9750
3104,-0.4070,1.1612,11.0085
3114,-0.3998,1.2163,10.9726
3124,-0.3639,1.2857,10.9846
3202,-0.4262,1.1732,11.0133
3212,-0.3496,1.2115,10.9702
3222,-0.3280,1.2043,10.9822
3232,-0.3591,1.1684,10.9247
3242,-0.3567,1.1660,10.9918
3252,-0.3831,1.1947,10.8745
3262,-0.4070,1.1588,10.9535
3340,-0.3519,1.1492,10.9391
3350,-0.3974,1.1564,10.9607
3360,-0.3639,1.2091,10.9630
3370,-0.4477,1.1516,11.0564
3380,-0.3472,1.2330,10.9271
3390,-0.3352,1.1420,10.8625
3400,-0.3424,1.1875,10.8936
3481,-0.3735,1.2330,10.9678
3491,-0.3591,1.1971,10.9630
3501,-0.3735,1.1157,10.8912
3511,-0.4334,1.1684,11.0229
3521,-0.3974,1.1660,10.9870
3531,-0.3591,1.2186,10.9726
3541,-0.2969,1.1564,10.9750
3619,-0.3807,1.1803,10.9032
3629,-0.4142,1.1468,10.9535
3639,-0.3352,1.2330,10.9080
3649,-0.3950,1.1971,10.9918
3659,-0.4357,1.1684,10.9487
3669,-0.4118,1.1827,10.9487
3679,-0.3615,1.2258,10.9726
3757,-0.3615,1.1588,10.9559
3767,-0.3232,1.1492,10.9152
3777,-0.3567,1.1588,10.9295
3787,-0.3759,1.1636,11.0205
3797,-0.3687,1.2474,10.9942
3807,-0.3903,1.1971,10.9702
3817,-0.3615,1.1899,11.0325
3895,-0.3496,1.0846,10.9391
3905,-0.3711,1.2234,11.0468
3915,-0.3903,1.1684,10.9607
3925,-0.3280,1.1564,11.0229
3935,-0.4334,1.1827,10.9654
3945,-0.3519,1.1612,10.9894
3955,-0.3879,1.1396,10.8577
4033,-0.3472,1.2450,10.9966
4043,-0.4190,1.1899,10.9726
4053,-0.4238,1.2139,10.9678
4063,-0.3950,1.1612,10.9990
4073,-0.3687,1.1708,10.9798
4083,-0.3926,1.1875,10.9319
4093,-0.3639,1.1899,10.9200
4171,-0.3783,1.1612,10.9583
4181,-0.4094,1.1109,10.9271
4191,-0.3711,1.1756,10.9630
4201,-0.4070,1.1468,10.8601
4211,-0.3519,1.1516,10.8864
4221,-0.3855,1.2115,10.9271
4231,-0.3591,1.1827,10.9487
4309,-0.4070,1.1851,10.9247
4319,-0.3735,1.1253,10.9559
4329,-0.3567,1.2091,10.9128
4339,-0.3639,1.1420,10.9750
4349,-0.3759,1.1636,10.9894
4359,-0.3567,1.2210,10.9966
4369,-0.3735,1.1444,10.9654
4439,-0.3352,1.1803,10.9128
4449,-0.3352,1.1947,10.9822
4459,-0.3352,1.2139,10.9415
4469,-0.3424,1.1564,10.9415
4479,-0.3567,1.2067,10.9128
4489,-0.3496,1.1875,11.0133
4499,-0.3304,1.1540,10.9152
4509,-0.4238,1.2091,10.9032
4592,-0.3472,1.1516,10.9822
4602,-0.3352,1.1827,10.8625
4612,-0.3280,1.1588,10.9391
4622,-0.3519,1.1660,10.9295
4632,-0.3855,1.1540,10.9319
4642,-0.3543,1.1947,10.9822
4652,-0.3424,1.2474,10.9918
4733,-0.4286,1.1492,10.9439
4743,-0.3543,1.1875,10.9822
4753,-0.3280,1.1923,11.0468
4763,-0.3783,1.1396,10.9870
4773,-0.3543,1.1803,10.9559
4783,-0.3136,1.1636,10.9128
4793,-0.3615,1.1971,10.9942
4870,-0.4070,1.1803,10.9966
4880,-0.3160,1.1636,11.0038
4890,-0.3663,1.1588,11.0516
4900,-0.4022,1.1756,11.0181
4910,-0.4070,1.1708,10.9367
4920,-0.3232,1.1875,10.8697
4930,-0.3735,1.2163,11.0014
5003,-0.4142,1.1660,10.8888
5013,-0.3543,1.1636,10.9295
5023,-0.3615,1.1612,11.0301
5033,-0.3759,1.2306,10.9439
5043,-0.3160,1.1612,11.0157
5053,-0.3639,1.1492,10.9918
5063,-0.3735,1.2570,10.8649
5140,-0.3639,1.1875,11.0038
5150,-0.3759,1.1349,10.9630
5160,-0.3519,1.1396,10.9966
5170,-0.4166,1.1684,10.9223
5180,-0.3519,1.2115,10.9319
5190,-0.2849,1.1923,10.9894
5200,-0.3639,1.1612,11.0301
5279,-0.3328,1.1205,10.9487
5289,-0.3496,1.2091,10.9271
5299,-0.3089,1.1181,11.0085
5309,-0.3735,1.1301,10.9271
5319,-0.4022,1.1540,10.9870
5329,-0.3831,1.1851,10.9678
5339,-0.3950,1.1349,10.9343
5420,-0.3496,1.1827,11.0421
5430,-0.3974,1.1732,11.0229
5440,-0.3926,1.2210,10.9918
5450,-0.3998,1.1995,10.9630
5460,-0.3280,1.1971,11.0373
5470,-0.3184,1.1827,11.0038
5480,-0.3903,1.1564,10.9128
5558,-0.3615,1.1516,10.9511
5568,-0.3639,1.2067,11.0205
5578,-0.4597,1.1684,11.0014
5588,-0.3663,1.1516,10.9894
5598,-0.4405,1.1851,11.0468
5608,-0.3663,1.1301,10.9870
5618,-0.3759,1.1612,10.9391
5699,-0.3184,1.2067,10.8888
5709,-0.3807,1.2546,11.0445
5719,-0.3615,1.2019,10.9343
5729,-0.3687,1.1540,10.9607
5739,-0.3855,1.2546,10.8793
5749,-0.3472,1.2186,10.9104
5759,-0.3496,1.1205,11.1139
5837,-0.3735,1.1756,10.9726
5847,-0.3663,1.0822,10.9223
5857,-0.3639,1.2474,10.9319
5867,-0.3998,1.2210,10.8721
5877,-0.3591,1.1492,10.8816
5887,-0.3567,1.1612,10.9511
5897,-0.4573,1.2426,10.8721
5975,-0.3472,1.2402,10.9056
5985,-0.2897,1.1372,11.0229
5995,-0.4070,1.1947,10.8984
6005,-0.3280,1.1013,10.9894
6015,-0.3232,1.1109,10.9822
6025,-0.3376,1.2737,10.9774
6035,-0.3855,1.2115,11.0445
6045,-0.4022,1.1037,10.9702
6125,-0.3543,1.2043,10.8769
6135,-0.4070,1.1420,11.0971
6145,-0.3639,1.2019,10.9630
6155,-0.3519,1.2282,11.0468
6165,-0.4238,1.1684,10.9990
6175,-0.3400,1.2330,10.8697
6185,-0.3519,1.0894,10.9630
6262,-0.3687,1.1349,11.0277
6272,-0.4262,1.3360,10.9343
6282,-0.3735,1.1588,11.0708
6292,-0.3424,1.1588,10.9630
6302,-0.3591,1.1995,10.9942
6312,-0.3687,1.1229,11.0014
6322,-0.3831,1.2091,10.9870
6402,-0.3926,1.2163,10.7548
6412,-0.3256,1.0942,11.2120
6422,-0.3759,1.2594,10.7859
6432,-0.4286,1.1444,10.9319
6442,-0.3974,1.0798,11.0445
6452,-0.3448,1.1875,10.7787
6462,-0.3352,1.1420,11.2264
6543,-0.3639,1.2067,10.9080
6553,-0.3328,1.2019,11.0780
6563,-0.4214,1.2139,10.8362
6573,-0.3615,1.2115,11.0253
6583,-0.4094,1.1277,10.9176
6593,-0.3903,1.1947,10.9583
6603,-0.3831,1.1660,10.9463
6669,-0.3472,1.1947,11.0397
6679,-0.3591,1.1971,10.9104
6689,-0.3807,1.1420,10.9654
6699,-0.3472,1.2163,10.9630
6709,-0.4022,1.1109,10.8816
6719,-0.3735,1.2977,10.9247
6729,-0.3424,1.0774,10.9271
6806,-0.3567,1.1684,10.9415
6816,-0.3328,1.1899,11.0253
6826,-0.4166,1.2186,10.8505
6836,-0.3448,1.2067,11.0780
6846,-0.4046,1.2043,10.9200
6856,-0.3855,1.1899,10.8146
6866,-0.2993,1.0463,11.0540
6944,-0.3711,1.1875,11.0205
6954,-0.3280,1.1349,10.8793
6964,-0.3759,1.1756,11.0205
6974,-0.4190,1.1851,10.9343
6984,-0.3926,1.2067,10.9774
6994,-0.3591,1.1684,10.9487
7004,-0.3639,1.1756,11.0181
7081,-0.3567,1.1875,11.2288
7091,-0.4334,1.2115,10.9894
7101,-0.4118,1.2163,10.8457
7111,-0.4597,1.2210,10.8625
7121,-0.3591,1.0942,10.9774
7131,-0.4190,1.2617,10.8338
7141,-0.3089,1.1372,11.0181
7214,-0.3280,1.1492,11.0540
7224,-0.3615,1.2881,10.8721
7234,-0.3903,1.2402,11.0397
7244,-0.3974,1.1229,10.9295
7254,-0.3759,1.2186,10.8840
7264,-0.3615,1.1923,11.0253
7274,-0.4070,1.2426,10.9056
7351,-0.3089,1.0487,11.0014
7361,-0.4573,1.2234,10.9918
7371,-0.2921,1.0822,11.0756
7381,-0.3903,1.3240,10.8601
7391,-0.3807,1.1349,10.9966
7401,-0.3639,1.0774,11.1498
7411,-0.3448,1.1947,10.7978
7488,-0.4238,1.0942,11.1953
7498,-0.3735,1.1516,10.9128
7508,-0.3543,1.1444,10.8122
7518,-0.2849,1.1109,11.0756
7528,-0.3783,1.2402,10.7763
7538,-0.3543,1.1301,11.1570
7548,-0.3136,1.1444,11.0061
7558,-0.4238,1.2474,10.8170
7634,-0.2634,0.9529,11.2527
7644,-0.3735,1.0774,11.1642
7654,-0.2442,1.3096,10.7811
7664,-0.4142,1.0511,11.2480
7674,-0.4597,1.3216,10.8026
7684,-0.4501,1.1779,10.8625
7694,-0.2634,0.9888,11.1139
7771,-0.4214,1.1564,11.0708
7781,-0.3639,1.2258,10.9367
7791,-0.3879,1.1756,11.0229
7801,-0.4214,1.1732,10.9966
7811,-0.3711,1.2019,10.9415
7821,-0.3112,1.2139,10.9343
7831,-0.3735,1.1947,10.9870
7908,-0.3974,1.1588,10.8960
7918,-0.3974,1.1971,10.9487
7928,-0.3591,1.1660,10.8960
7938,-0.3831,1.2186,10.9678
7948,-0.3639,1.1492,11.0780
7958,-0.3783,1.1875,10.9295
7968,-0.3639,1.1301,11.0133
8048,-0.3400,1.1756,10.8840
8058,-0.3687,1.2019,10.9247
8068,-0.3926,1.2091,10.8840
8078,-0.3807,1.2019,10.9870
8088,-0.3328,1.2019,10.9630
8098,-0.3687,1.2139,10.9678
8108,-0.3639,1.1947,10.9990
8186,-0.2993,0.6560,12.1434
8196,-0.3879,1.2977,11.2360
8206,-0.4717,1.5921,10.0173
8216,-0.2322,0.8164,11.9423
8226,-0.4812,1.5395,9.9144
8236,-0.4070,1.2067,11.0325
8246,-0.2897,1.0080,11.3772
8324,-0.3208,1.1779,10.9319
8334,-0.4429,1.2019,11.0995
8344,-0.4142,1.1516,11.0923
8354,-0.3663,1.2019,10.9918
8364,-0.4070,1.2665,10.9894
8374,-0.3448,1.1564,11.0852
8384,-0.3615,1.2186,10.8242
8465,-0.3328,1.2019,10.9990
8475,-0.3687,1.1612,10.9439
8485,-0.3328,1.2043,10.9104
8495,-0.3735,1.1372,10.9798
8505,-0.3328,1.2306,11.0061
8515,-0.3519,1.2378,10.8960
8525,-0.3184,1.2498,10.9535
8603,-0.3472,1.1109,10.9702
8613,-0.3711,1.1947,10.9726
8623,-0.3280,1.1732,10.9056
8633,-0.3591,1.1971,11.0038
8643,-0.3232,1.1492,10.9367
8653,-0.3591,1.1756,10.9918
8663,-0.3950,1.1875,11.0109
8744,-0.3663,1.2594,10.9152
8754,-0.4525,1.2067,10.9583
8764,-0.3376,1.2067,10.9343
8774,-0.3783,1.1301,11.0301
8784,-0.3065,1.1899,10.9176
8794,-0.4094,1.1803,10.9223
8804,-0.3519,1.1756,10.8984
8870,-0.3567,1.2115,10.9630
8880,-0.3998,1.1923,10.9439
8890,-0.3687,1.1732,10.9846
8900,-0.3926,1.2163,10.9798
8910,-0.3759,1.1971,11.0995
8920,-0.3089,1.2019,10.9990
8930,-0.3376,1.1708,10.9367
9010,-0.3448,1.2139,11.0157
9020,-0.3112,1.2282,10.9367
9030,-0.4022,1.1684,10.9511
9040,-0.3903,1.2067,10.9774
9050,-0.3232,1.1588,10.8864
9060,-0.3903,1.2402,10.9678
9070,-0.4070,1.2330,10.9678
9080,-0.4046,1.2570,10.8912
9160,-0.3065,1.1588,10.8960
9170,-0.3615,1.1660,10.9966
9180,-0.3759,1.1708,10.9319
9190,-0.3496,1.1779,10.8721
9200,-0.3950,1.2186,10.9463
9210,-0.4142,1.1540,10.9726
9220,-0.3400,1.1253,10.8793
9297,-0.3496,1.2522,10.9942
9307,-0.2873,1.1588,10.9223
9317,-0.3639,1.1995,10.9678
9327,-0.3687,1.1492,10.9200
9337,-0.3903,1.1444,10.9223
9347,-0.3711,1.1899,10.9630
9357,-0.4357,1.2330,11.0157
9430,-0.2658,1.2067,11.0205
9440,-0.3472,1.2115,10.8481
9450,-0.3496,1.1636,10.9080
9460,-0.4142,1.1899,10.9104
9470,-0.4142,1.1468,10.9798
9480,-0.3998,1.1875,10.9726
9490,-0.3735,1.1827,10.9439
9564,-0.3998,1.1732,10.9367
9574,-0.3783,1.1875,10.9678
9584,-0.3424,1.1803,10.9104
9594,-0.2849,1.2043,10.9726
9604,-0.3615,1.2043,11.0109
9614,-0.3759,1.2019,10.9702
9624,-0.3687,1.2306,11.0349
9698,-0.3783,1.2474,10.9271
9708,-0.3855,1.2450,10.9008
9718,-0.3926,1.1660,10.9846
9728,-0.3519,1.1732,11.0157
9738,-0.4166,1.1732,10.9798
9748,-0.3232,1.1061,10.8601
9758,-0.3687,1.1827,10.9487
9836,-0.3855,1.1971,10.9870
9846,-0.3639,1.1779,10.9247
9856,-0.3687,1.2546,10.9583
9866,-0.4070,1.1516,11.0301
9876,-0.3687,1.2234,10.9798
9886,-0.3639,1.1779,10.9559
9896,-0.2945,1.1827,10.8673
9968,-0.4214,1.1468,10.9152
9978,-0.3424,1.2474,10.9080
9988,-0.3663,1.1708,10.9271
9998,-0.3663,1.1085,10.9702
10008,-0.3926,1.1301,10.9080
10018,-0.3879,1.1109,10.9846
10028,-0.3663,1.1205,10.9200
10105,-0.3472,1.2378,10.8960
10115,-0.4070,1.1660,10.8888
10125,-0.3998,1.1420,10.9223
10135,-0.4238,1.1923,11.0109
10145,-0.3687,1.1779,10.9415
10155,-0.3711,1.2163,11.0923
10165,-0.3472,1.2570,10.9894
10242,-0.3855,1.2139,10.9583
10252,-0.3807,1.1109,11.0038
10262,-0.3615,1.2330,10.8649
10272,-0.3807,1.1899,10.9487
10282,-0.3783,1.2522,11.0014
10292,-0.3519,1.1396,10.9990
10302,-0.3472,1.1564,10.9271
10385,-0.3735,1.1779,10.9200
10395,-0.4070,1.2139,10.8601
10405,-0.3926,1.1947,10.9319
10415,-0.3807,1.2139,10.9367
10425,-0.3519,1.2378,10.8936
10435,-0.3519,1.1827,10.9271
10445,-0.3974,1.1971,10.9942
10526,-0.3208,1.1803,10.8984
10536,-0.3280,1.2186,10.9511
10546,-0.3304,1.1636,10.9152
10556,-0.3735,1.1779,11.0061
10566,-0.3831,1.1708,10.9870
10576,-0.3974,1.1660,10.9247
10586,-0.3735,1.1827,10.9607
10596,-0.3615,1.2139,10.9487
10676,-0.4166,1.2019,10.9846
10686,-0.4022,1.1516,10.9678
10696,-0.3807,1.1971,10.9415
10706,-0.4405,1.1803,10.9630
10716,-0.3615,1.2163,10.9080
10726,-0.3352,1.2067,10.9607
10736,-0.3519,1.2139,10.9726
10814,-0.3448,1.2043,11.0229
10824,-0.3543,1.2043,10.9367
10834,-0.3591,1.1779,10.9463
10844,-0.3496,1.1875,10.9750
10854,-0.3950,1.2354,10.9319
10864,-0.3903,1.2378,10.9535
10874,-0.2418,1.0271,10.8649
10952,-0.3926,1.2067,10.8266
10962,-0.3639,1.2091,10.9607
10972,-0.4405,1.2186,10.9056
10982,-0.3663,1.2210,11.0349
10992,-0.3424,1.1468,10.8960
11002,-0.3591,1.1827,11.0899
11012,-0.3783,1.2019,10.9487
11078,-0.3998,1.1756,10.8673
11088,-0.3208,1.1301,10.9918
11098,-0.3496,1.1875,10.8936
11108,-0.4046,1.2163,11.0014
11118,-0.4286,1.1851,10.9415
11128,-0.3376,1.2210,10.9319
11138,-0.3998,1.1779,10.9439
11216,-0.3496,1.1372,10.9559
11226,-0.3855,1.2186,10.9990
11236,-0.4238,1.1708,10.9750
11246,-0.4118,1.2258,10.9750
11256,-0.3639,1.1756,11.0828
11266,-0.3136,1.1732,10.9774
11276,-0.4070,1.1181,11.0516
11356,-0.3759,1.1756,11.0109
11366,-0.3759,1.1732,10.9080
11376,-0.3687,1.1732,10.9271
11386,-0.4118,1.1971,10.9104
11396,-0.3735,1.1851,10.9463
11406,-0.4022,1.1636,10.9535
11416,-0.3926,1.1588,10.9487
11495,-0.3879,1.1923,10.9942
11505,-0.3543,1.1349,11.0373
11515,-0.3567,1.2258,11.0229
11525,-0.4070,1.1875,10.9271
11535,-0.4238,1.1612,10.9367
11545,-0.3472,1.2139,10.9654
11555,-0.3639,1.2330,10.9894
11628,-0.2993,1.1875,10.9559
11638,-0.3519,1.1684,10.9535
11648,-0.3567,1.1588,11.0445
11658,-0.4070,1.1732,10.9439
11668,-0.3591,1.1827,10.9702
11678,-0.4094,1.1756,10.9726
11688,-0.3903,1.2474,10.8386
11762,-0.3711,1.2306,10.9535
11772,-0.3280,1.2091,10.9750
11782,-0.4046,1.1349,10.9200
11792,-0.4453,1.1827,10.8936
11802,-0.3807,1.2258,10.9271
11812,-0.3112,1.2282,10.9966
11822,-0.3232,1.1756,10.9918
11899,-0.4022,1.2210,10.9247
11909,-0.4118,1.1684,10.9678
11919,-0.3615,1.2019,10.9128
11929,-0.3639,1.2522,10.9678
11939,-0.3424,1.2210,10.9894
11949,-0.3160,1.2067,11.0157
11959,-0.3280,1.1756,10.8984
12034,-0.3567,1.1372,11.0085
12044,-0.3591,1.1827,10.9032
12054,-0.4022,1.1492,11.0421
12064,-0.3567,1.2043,10.9152
12074,-0.3615,1.1732,11.0373
12084,-0.3567,1.1396,10.9247
12094,-0.4381,1.1684,10.8864
12171,-0.3591,1.1851,10.9654
12181,-0.3879,1.2091,10.9678
12191,-0.3232,1.1756,10.9080
12201,-0.3879,1.1732,10.9750
12211,-0.3496,1.1851,10.9942
12221,-0.3400,1.1923,10.9295
12231,-0.3543,1.1875,10.9080
12309,-0.3328,1.1420,10.9870
12319,-0.3879,1.1947,10.9942
12329,-0.3879,1.1612,11.0061
12339,-0.3112,1.2115,11.0349
12349,-0.3807,1.1205,10.9990
12359,-0.3543,1.2067,11.0038
12369,-0.3472,1.1875,10.9152
12379,-0.4022,1.1564,10.9774
12453,-0.3496,1.1492,10.9152
12463,-0.3496,1.1875,10.9726
12473,-0.3352,1.1971,10.9870
12483,-0.3041,1.1684,10.9654
12493,-0.4118,1.2210,10.9535
12503,-0.3663,1.1851,10.9942
12513,-0.3759,1.1396,10.9630
12594,-0.3735,1.1827,10.9487
12604,-0.3591,1.1851,11.0253
12614,-0.3352,1.1061,10.9870
12624,-0.3879,1.2091,10.8433
12634,-0.3783,1.1923,10.8721
12644,-0.3519,1.2019,10.9535
12654,-0.3496,1.2282,11.0421
12732,-0.3950,1.2091,11.0109
12742,-0.3591,1.2210,11.0038
12752,-0.3831,1.2067,10.8649
12762,-0.3424,1.1827,10.9295
12772,-0.3711,1.1971,10.9630
12782,-0.3783,1.1372,10.8553
12792,-0.3855,1.2210,10.9511
12870,-0.3831,1.1492,10.9654
12880,-0.3879,1.1540,10.9223
12890,-0.4238,1.1564,10.8912
12900,-0.3256,1.2019,10.9415
12910,-0.3543,1.1875,10.9559
12920,-0.3232,1.1899,10.9223
12930,-0.3472,1.1181,11.0612
13005,-0.3352,1.1564,10.9678
13015,-0.3424,1.2163,10.8457
13025,-0.3304,1.1851,10.9535
13035,-0.3759,1.1684,10.9367
13045,-0.3472,1.1732,10.9439
13055,-0.4357,1.1396,10.9319
13065,-0.3376,1.1827,10.9080
13145,-0.3256,1.2115,10.9463
13155,-0.3496,1.1564,10.9894
13165,-0.3807,1.1875,10.9511
13175,-0.4573,1.1875,10.9200
13185,-0.3496,1.1756,10.9439
13195,-0.3687,1.2210,10.9535
13205,-0.3926,1.1301,10.9391
13274,-0.3639,1.1971,10.9295
13284,-0.3926,1.1827,11.0205
13294,-0.3950,1.1779,11.0109
13304,-0.3855,1.1803,10.8960
13314,-0.3735,1.1492,10.9176
13324,-0.3855,1.1540,10.9607
13334,-0.4166,1.2306,10.9152
13412,-0.3424,1.1396,10.9918
13422,-0.4190,1.2043,11.0133
13432,-0.2993,1.1109,11.0277
13442,-0.3591,1.2067,10.9630
13452,-0.3974,1.1899,10.9822
13462,-0.3567,1.2043,10.9367
13472,-0.3831,1.1061,10.9870
13550,-0.3663,1.2306,10.9295
13560,-0.3519,1.1971,10.9870
13570,-0.4022,1.1420,11.0061
13580,-0.3950,1.2258,10.9942
13590,-0.3424,1.1612,10.9152
13600,-0.3256,1.1612,10.9391
13610,-0.3639,1.1779,11.0014
13690,-0.4214,1.1708,10.9487
13700,-0.3328,1.2210,10.9295
13710,-0.3663,1.1516,11.0325
13720,-0.3639,1.2498,10.9415
13730,-0.3256,1.1396,10.9319
13740,-0.3256,1.2306,10.9822
13750,-0.3879,1.1732,10.9607
13824,-0.3567,1.2665,10.9319
13834,-0.3615,1.1875,10.9343
13844,-0.3711,1.2043,10.9846
13854,-0.3591,1.1827,10.9750
13864,-0.2993,1.1875,10.9008
13874,-0.3663,1.1636,10.9630
13884,-0.3232,1.1660,10.9990
13960,-0.3089,1.1947,11.0301
13970,-0.3687,1.1947,10.9583
13980,-0.3376,1.1756,10.9008
13990,-0.3543,1.1444,10.9990
14000,-0.3879,1.1157,10.9008
14010,-0.3759,1.2139,10.9559
14020,-0.3184,1.2210,10.9726
14096,-0.3950,1.2091,10.9702
14106,-0.3376,1.2067,10.9535
14116,-0.3472,1.2019,10.9104
14126,-0.3783,1.1971,10.9319
14136,-0.3424,1.1947,11.0253
14146,-0.3376,1.1947,11.0085
14156,-0.3926,1.1899,10.9630
14166,-0.3519,1.2163,10.9391
14244,-0.3615,1.1492,10.9726
14254,-0.3496,1.1492,11.0349
14264,-0.3974,1.2306,10.9894
14274,-0.3496,1.2282,10.9654
14284,-0.3496,1.1349,11.0014
14294,-0.4094,1.1875,10.9152
14304,-0.3783,1.1301,11.0229
14380,-0.3352,1.1349,10.9942
14390,-0.3567,1.2354,10.9152
14400,-0.3472,1.1756,10.9008
14410,-0.4070,1.2091,11.0229
14420,-0.3974,1.1827,10.9511
14430,-0.3567,1.2067,11.0564
14440,-0.4334,1.1779,10.9559
14519,-0.3950,1.2354,10.9774
14529,-0.4046,1.1732,10.9463
14539,-0.3783,1.1779,10.8553
14549,-0.3424,1.2186,10.9535
14559,-0.4262,1.1420,10.9104
14569,-0.3831,1.2570,10.9630
14579,-0.3759,1.1444,11.0085
14655,-0.3639,1.1708,10.9702
14665,-0.3711,1.1923,10.9846
14675,-0.3304,1.2091,10.9367
14685,-0.3879,1.1612,10.9247
14695,-0.3950,1.1995,10.8769
14705,-0.2969,1.1899,10.9630
14715,-0.3376,1.1684,10.9966
14789,-0.3903,1.1899,10.9846
14799,-0.3783,1.2091,10.9295
14809,-0.3759,1.1612,10.9415
14819,-0.3232,1.1899,10.9367
14829,-0.3400,1.2163,10.8625
14839,-0.3496,1.1732,10.9223
14849,-0.3496,1.1899,10.9271
14932,-0.3926,1.1803,10.9583
14942,-0.4022,1.1779,10.9942
14952,-0.3998,1.2354,10.9391
14962,-0.3735,1.1708,10.9343
14972,-0.4214,1.1564,10.9654
14982,-0.3974,1.1684,10.9487
14992,-0.3903,1.2019,10.9630
15076,-0.3017,1.1756,10.9152
15086,-0.3328,1.2522,10.9343
15096,-0.3855,1.1875,10.9654
15106,-0.3184,1.2306,10.9750
15116,-0.3639,1.1516,11.0349
15126,-0.3783,1.1468,10.9870
15136,-0.3591,1.1612,10.8697
15218,-0.3472,1.1636,10.9223
15228,-0.3543,1.1420,10.9966
15238,-0.3663,1.1253,10.9463
15248,-0.4022,1.1684,10.8888
15258,-0.3472,1.2330,10.8505
15268,-0.3903,1.1660,10.9990
15278,-0.3639,1.2186,10.9654
15356,-0.3950,1.1899,11.0325
15366,-0.2897,1.1923,10.9918
15376,-0.3903,1.2043,10.9942
15386,-0.3663,1.1660,10.9367
15396,-0.4022,1.1540,10.8936
15406,-0.3615,1.2139,10.9343
15416,-0.3926,1.2330,10.9439
15486,-0.3855,1.1899,10.9271
15496,-0.3328,1.1612,10.8840
15506,-0.3567,1.1971,10.9271
15516,-0.3926,1.2594,10.9966
15526,-0.4453,1.2210,10.9487
15536,-0.3783,1.1708,10.9104
15546,-0.4022,1.2258,10.9080
15628,-0.3974,1.1157,10.8697
15638,-0.3663,1.1827,10.9654
15648,-0.4214,1.1516,10.8505
15658,-0.3950,1.1756,10.8864
15668,-0.3041,1.1803,10.8601
15678,-0.3376,1.1756,11.0229
15688,-0.3424,1.1947,10.9511
15767,-0.4262,1.1468,10.9966
15777,-0.4166,1.1636,10.9535
15787,-0.3017,1.2354,10.9966
15797,-0.3926,1.2234,10.9918
15807,-0.3472,1.1899,10.8194
15817,-0.4214,1.1923,10.9654
15827,-0.3663,1.2139,10.9511
15909,-0.3328,1.1875,10.9678
15919,-0.3783,1.1995,10.9223
15929,-0.3855,1.2186,10.9822
15939,-0.3112,1.1803,11.0612
15949,-0.3974,1.1684,10.9750
15959,-0.3974,1.2139,10.9128
15969,-0.4022,1.1660,10.8816
15979,-0.3735,1.2234,10.9798
16052,-0.3376,1.1899,10.9535
16062,-0.3855,1.1684,10.9295
16072,-0.3687,1.2115,10.9990
16082,-0.3974,1.1301,10.9894
16092,-0.3352,1.2809,10.9870
16102,-0.3974,1.1899,10.9271
16112,-0.3304,1.2330,11.0157
16191,-0.3567,1.1756,10.9223
16201,-0.3519,1.1779,11.0014
16211,-0.4022,1.1277,11.0061
16221,-0.3903,1.1923,10.9750
16231,-0.3998,1.2282,10.9080
16241,-0.3711,1.1851,10.9415
16251,-0.3567,1.2210,10.9559
16328,-0.3328,1.2282,11.0612
16338,-0.3400,1.1468,10.9966
16348,-0.3543,1.1995,10.7524
16358,-0.3974,1.2785,11.0133
16368,-0.3184,1.1492,10.9798
16378,-0.4118,1.1971,10.9367
16388,-0.4262,1.1899,11.0038
16463,-0.3496,1.1540,10.8026
16473,-0.3496,1.1708,10.9702
16483,-0.3208,1.2426,10.8840
16493,-0.3184,1.2210,10.7978
16503,-0.4118,1.1037,11.1690
16513,-0.3950,1.2378,10.8505
16523,-0.3543,1.2019,10.8457
16601,-0.3663,1.2210,10.9319
16611,-0.3639,1.1564,10.9870
16621,-0.3304,1.1756,11.0157
16631,-0.3879,1.2139,10.9056
16641,-0.3567,1.1492,11.0205
16651,-0.3304,1.1277,10.9678
16661,-0.3472,1.2067,11.0061
16742,-0.2825,1.2282,10.9176
16752,-0.3472,1.1636,10.9894
16762,-0.3065,1.2115,10.9966
16772,-0.3304,1.1157,10.9678
16782,-0.3112,1.1564,10.9894
16792,-0.3256,1.2139,10.9271
16802,-0.3448,1.1325,10.9319
16881,-0.3855,1.1779,11.0181
16891,-0.3519,1.1540,11.0349
16901,-0.3136,1.1492,10.9056
16911,-0.3663,1.2210,10.9511
16921,-0.3280,1.2019,11.0277
16931,-0.3519,1.1540,10.9966
16941,-0.4334,1.1875,10.9295
17018,-0.3591,1.1756,11.0157
17028,-0.3663,1.1540,11.0397
17038,-0.3496,1.2043,10.9918
17048,-0.4310,1.1923,10.9463
17058,-0.3998,1.1756,10.9439
17068,-0.3543,1.2091,11.0014
17078,-0.3208,1.1875,11.0205
17156,-0.3807,1.1564,10.9798
17166,-0.3639,1.1444,10.9894
17176,-0.3926,1.2019,10.9511
17186,-0.4190,1.1660,10.9990
17196,-0.3448,1.1756,10.8505
17206,-0.3376,1.1875,11.0349
17216,-0.3783,1.2115,11.0492
17291,-0.4166,1.2282,10.9535
17301,-0.3711,1.2474,11.0061
17311,-0.3639,1.1851,10.9319
17321,-0.3831,1.1588,10.8984
17331,-0.3017,1.2186,10.9271
17341,-0.3735,1.1851,10.9726
17351,-0.3974,1.1684,10.9415
17430,-0.3472,1.1827,10.9487
17440,-0.3639,1.1444,10.9223
17450,-0.3615,1.1851,10.9008
17460,-0.3639,1.1995,11.0229
17470,-0.3376,1.1636,10.9223
17480,-0.3136,1.1349,10.9152
17490,-0.3974,1.2210,10.9750
17570,-0.3543,1.1588,10.9319
17580,-0.4190,1.2067,10.9367
17590,-0.3687,1.2234,10.8960
17600,-0.3974,1.1301,10.9798
17610,-0.3472,1.1756,10.9343
17620,-0.3232,1.1564,11.0038
17630,-0.3591,1.2594,10.9415
17701,-0.2993,1.1660,10.8290
17711,-0.3735,1.1708,10.9415
17721,-0.3663,1.2139,11.0277
17731,-0.3759,1.1756,10.9271
17741,-0.3400,1.1875,10.9990
17751,-0.4166,1.1372,10.8769
17761,-0.3376,1.1995,10.9750
17771,-0.3256,1.1396,10.9511
17851,-0.3783,1.2091,10.9343
17861,-0.3615,1.1851,10.9415
17871,-0.3735,1.1827,11.0085
17881,-0.3591,1.1588,10.9583
17891,-0.3998,1.1516,10.9319
17901,-0.3783,1.2091,10.9846
17911,-0.3950,1.2258,11.0157
17992,-0.3711,1.1588,10.9463
18002,-0.3591,1.1947,10.9654
18012,-0.3160,1.1684,10.9463
18022,-0.3352,1.1612,11.0085
18032,-0.4238,1.2186,11.0229
18042,-0.3903,1.1516,10.8673
18052,-0.3687,1.1947,10.9104
18129,-0.3783,1.1612,10.9343
18139,-0.3448,1.1708,10.8816
18149,-0.4357,1.2139,10.9535
18159,-0.3352,1.1756,10.9535
18169,-0.2945,1.1756,10.8984
18179,-0.3519,1.1899,10.9798
18189,-0.3543,1.1540,10.9463
18262,-0.3567,1.1756,10.9559
18272,-0.3831,1.1444,10.9990
18282,-0.4357,1.2258,10.9439
18292,-0.3711,1.1612,10.9678
18302,-0.2729,1.1468,10.9439
18312,-0.3687,1.2091,10.9032
18322,-0.3496,1.1779,10.9678
18398,-0.3879,1.1492,10.9726
18408,-0.3879,1.2091,10.9654
18418,-0.4190,1.1875,10.9654
18428,-0.4070,1.2186,10.9535
18438,-0.3112,1.2282,10.9271
18448,-0.3711,1.1444,11.0205
18458,-0.3807,1.1803,11.0253
18534,-0.3759,1.1851,10.8936
18544,-0.3663,1.1564,10.8793
18554,-0.3232,1.1133,10.9654
18564,-0.3807,1.2402,10.9583
18574,-0.3687,1.1564,10.9774
18584,-0.3472,1.2043,11.0109
18594,-0.3639,1.1995,11.0133
18671,-0.3903,1.1779,10.9128
18681,-0.3711,1.1301,10.9128
18691,-0.4286,1.1779,10.9391
18701,-0.3807,1.1349,10.9056
18711,-0.3543,1.1061,11.0564
18721,-0.4453,1.2043,11.0205
18731,-0.3783,1.1564,11.0301
18809,-0.3567,1.2043,10.9583
18819,-0.3400,1.1732,10.9583
18829,-0.3160,1.2043,10.9176
18839,-0.3926,1.1899,10.9630
18849,-0.3903,1.1971,10.9535
18859,-0.4262,1.1396,10.9894
18869,-0.3567,1.0965,11.0349
18946,-0.4310,1.1756,10.9056
18956,-0.3903,1.1325,10.9223
18966,-0.3112,1.1492,10.9223
18976,-0.3759,1.2115,10.9463
18986,-0.3639,1.2067,10.9583
18996,-0.4405,1.1516,10.9654
19006,-0.3879,1.1947,10.9271
19085,-0.3998,1.1923,10.9080
19095,-0.3759,1.1995,10.9343
19105,-0.3615,1.2091,11.0229
19118,-0.3807,1.2306,10.9918
19157,-0.4405,1.1708,10.9152
19194,-0.3639,1.1923,10.8864
19299,-0.3687,1.1756,11.0133
19337,-0.3687,1.1684,11.0397
19374,-0.3400,1.1420,11.0133
19411,-0.3304,1.2210,10.9176
19448,-0.4094,1.2019,10.9200
19485,-0.4070,1.2186,10.9295
19523,-0.3926,1.1037,10.9391
19628,-0.3663,1.1540,11.0109
19666,-0.3783,1.2043,10.9152
19704,-0.3879,1.1636,10.9080
19741,-0.3711,1.1492,10.9367
19778,-0.3998,1.1684,10.9583
19815,-0.3328,1.1444,11.0085
19852,-0.3974,1.1420,11.0588
19957,-0.3591,1.1564,10.9463
19995,-0.3472,1.2234,10.9702
20033,-0.3184,1.1684,10.9990
20070,-0.3543,1.1564,10.9367
20107,-0.3759,1.1756,10.9343
20144,-0.4214,1.2210,10.9774
20182,-0.3017,1.1229,10.9343
20219,-0.3472,1.1588,10.9942
20325,-0.3926,1.1636,10.9415
20363,-0.3926,1.1588,10.8840
20400,-0.3639,1.2498,11.0157
20437,-0.3232,1.1708,10.9343
20474,-0.4166,1.1708,10.9822
20511,-0.3926,1.1564,10.9942
20548,-0.3926,1.1636,11.0349
20652,-0.3376,1.1564,10.9367
20690,-0.3807,1.2258,10.9367
20728,-0.3615,1.1516,10.9343
20765,-0.3998,1.2186,11.0277
20802,-0.4118,1.2043,10.9702
20839,-0.3424,1.2043,11.0373
20876,-0.3759,1.2210,10.9750
20973,-0.3879,1.1301,10.9511
21011,-0.3926,1.2234,10.9870
21049,-0.3472,1.1779,10.9391
21087,-0.3998,1.1588,10.9487
21125,-0.3926,1.1420,10.9583
21162,-0.3735,1.1612,10.9535
21199,-0.4310,1.1612,10.9583
21305,-0.3424,1.1636,10.9319
21343,-0.3639,1.2067,10.9367
21381,-0.4070,1.2186,10.9535
21418,-0.3711,1.1420,10.8290
21455,-0.3879,1.1588,10.9247
21493,-0.3759,1.1684,10.9774
21530,-0.3687,1.1827,10.9966
21635,-0.3304,1.2019,10.9535
21673,-0.3519,1.1277,11.0014
21711,-0.3831,1.1732,10.9463
21749,-0.3376,1.2186,10.9894
21787,-0.3567,1.1827,10.9104
21825,-0.3687,1.1420,10.9487
21863,-0.4214,1.1756,10.9559
21971,-0.3974,1.1947,10.9918
22009,-0.3472,1.2091,10.9798
22047,-0.3472,1.1109,10.9966
22085,-0.3472,1.1540,10.9487
22123,-0.4046,1.1756,10.9511
22161,-0.3926,1.1756,10.8721
22199,-0.3807,1.1157,10.9008
22304,-0.3615,1.1875,10.9415
22342,-0.3687,1.2067,10.9822
22380,-0.3352,1.1372,11.0061
22418,-0.4190,1.1612,11.0708
22456,-0.3400,1.1779,10.9702
22494,-0.3591,1.2354,11.0540
22532,-0.3974,1.1612,10.8984
22637,-0.3376,1.1756,10.9654
22675,-0.3639,1.2115,10.9152
22713,-0.3855,1.1420,10.9343
22751,-0.3376,1.2115,10.9271
22788,-0.4070,1.2043,10.9654
22826,-0.3472,1.1875,11.0085
22864,-0.3903,1.2067,10.9894
22970,-0.4022,1.1995,10.9200
23008,-0.3735,1.1875,10.8433
23046,-0.3184,1.2139,10.9918
23084,-0.3448,1.1756,10.9080
23122,-0.3424,1.2282,10.8936
23160,-0.3615,1.1516,10.9702
23198,-0.3376,1.1660,11.0397
23301,-0.4357,1.1588,11.0349
23339,-0.3639,1.1756,10.9726
23377,-0.3591,1.1756,11.0421
23415,-0.4357,1.1492,10.9750
23453,-0.3280,1.1851,10.9367
23491,-0.3855,1.1971,11.0205
23529,-0.3998,1.1947,10.9942
23632,-0.3759,1.2091,10.9152
23670,-0.3735,1.1947,11.0085
23708,-0.3424,1.2019,10.9702
23746,-0.3855,1.1803,10.9391
23784,-0.3855,1.1277,10.9870
23822,-0.3089,1.2210,11.0109
23860,-0.3543,1.1875,11.0085
23966,-0.4022,1.1564,10.9391
24004,-0.3903,1.2498,10.9463
24042,-0.3974,1.1420,10.9942
24080,-0.2801,1.1492,10.9894
24118,-0.3735,1.1995,10.9894
24155,-0.3831,1.1660,10.9439
24193,-0.4046,1.1325,10.9128
24301,-0.3424,1.1732,10.9032
24339,-0.4022,1.1803,10.9391
24377,-0.4022,1.1612,10.8793
24415,-0.3376,1.1827,10.9654
24453,-0.3519,1.1708,11.0181
24491,-0.4477,1.1827,10.8529
24529,-0.4118,1.1636,10.9247
24567,-0.3208,1.1899,10.9104
24675,-0.3304,1.1205,10.9750
24713,-0.3687,1.2139,10.9966
24751,-0.3687,1.1851,10.9559
24789,-0.3783,1.2043,10.9918
24827,-0.3304,1.1444,10.9200
24865,-0.2969,1.1013,10.9798
24903,-0.3639,1.1684,10.9750
25008,-0.3208,1.2019,10.9271
25046,-0.3855,1.1899,10.9511
25084,-0.3639,1.2163,10.9152
25122,-0.4166,1.1875,10.9583
25160,-0.4070,1.1540,10.9487
25198,-0.4190,1.1756,10.9487
25236,-0.3567,1.2163,10.9678
25338,-0.3543,1.1349,11.0612
25376,-0.4046,1.1875,10.9367
25414,-0.4214,1.1372,11.0229
25452,-0.4046,1.1923,10.9702
25490,-0.3807,1.1732,10.9152
25528,-0.4118,1.1540,10.9798
25566,-0.4070,1.1660,10.9511
25674,-0.3376,1.1756,10.9894
25712,-0.3615,1.1660,10.9104
25750,-0.3112,1.1947,10.9630
25788,-0.4070,1.2019,10.9678
25826,-0.3591,1.1396,10.9630
25864,-0.3687,1.2163,10.9415
25902,-0.3472,1.1588,10.9535
26005,-0.3376,1.1803,10.8912
26043,-0.3879,1.2067,10.9583
26081,-0.3639,1.1803,10.9750
26119,-0.3783,1.1732,10.9487
26157,-0.3639,1.1636,10.9822
26195,-0.3831,1.1301,10.9870
26233,-0.3400,1.1612,11.0181
26333,-0.4094,1.1349,10.9654
26371,-0.3926,1.1732,10.9319
26409,-0.3735,1.1947,11.0468
26447,-0.3711,1.1684,10.9056
26485,-0.3184,1.1229,10.8912
26523,-0.3519,1.2258,10.9463
26561,-0.4190,1.1803,11.0253
26667,-0.2801,1.1372,11.0109
26705,-0.3232,1.2306,11.0014
26743,-0.3687,1.2043,11.0229
26781,-0.3735,1.1827,10.9798
26819,-0.4118,1.2282,10.9511
26857,-0.4238,1.1396,10.9008
26895,-0.3352,1.1205,11.0014
27001,-0.3328,1.1851,10.9104
27039,-0.3567,1.1803,10.9750
27077,-0.3687,1.0942,10.9607
27115,-0.4022,1.1277,11.0133
27153,-0.3615,1.1516,10.9511
27191,-0.4262,1.2091,10.9535
27229,-0.3687,1.2115,10.9654
27334,-0.3879,1.1899,11.0038
27372,-0.4070,1.2043,10.9630
27410,-0.3711,1.2067,10.8888
27448,-0.3639,1.1947,10.9391
27486,-0.4453,1.1971,10.9750
27524,-0.3783,1.1779,10.9702
27562,-0.3328,1.1660,10.9391
27668,-0.3831,1.1564,10.9894
27706,-0.4310,1.2139,10.9200
27744,-0.3711,1.2019,11.0181
27782,-0.3926,1.2306,11.0109
27820,-0.3926,1.1229,10.9535
27858,-0.3926,1.1492,10.9918
27896,-0.3424,1.2210,10.9463
28001,-0.3496,1.1708,11.0157
28039,-0.3926,1.1420,10.9678
28077,-0.3543,1.1971,10.9702
28115,-0.3855,1.1899,10.9726
28153,-0.3663,1.1588,10.9918
28191,-0.3232,1.1468,11.0492
28229,-0.3424,1.2115,11.0277
28334,-0.3735,1.2186,11.0109
28373,-0.3615,1.1732,11.0301
28411,-0.3711,1.1372,10.9200
28449,-0.3519,1.1372,10.9439
28487,-0.3304,1.2234,10.9367
28525,-0.3783,1.1468,10.9367
28563,-0.4022,1.1636,10.9247
28601,-0.3926,1.1827,10.9702
28695,-0.3472,1.2282,10.9319
28734,-0.3280,1.1851,11.0014
28772,-0.3998,1.1229,10.9822
28810,-0.3879,1.1947,10.9391
28848,-0.4238,1.2163,10.9391
28886,-0.3998,1.2163,10.9774
28924,-0.4070,1.1995,10.9846
29022,-0.3376,1.1396,10.9894
29060,-0.3759,1.1492,10.9894
29098,-0.3639,1.1875,10.9870
29136,-0.3759,1.1732,11.0205
29174,-0.3472,1.1923,10.8697
29212,-0.3352,1.1803,10.9678
29250,-0.3735,1.1492,10.9439
29344,-0.3735,1.1325,10.9223
29383,-0.3759,1.1325,10.9487
29422,-0.3448,1.2139,11.0325
29460,-0.3974,1.1492,10.9032
29498,-0.3950,1.2067,11.0421
29536,-0.3879,1.1684,10.8816
29574,-0.4022,1.1923,10.9678
29671,-0.3591,1.1875,11.0492
29710,-0.3519,1.1253,10.9990
29748,-0.3831,1.1708,10.9319
29786,-0.3328,1.1875,11.0397
29825,-0.3065,1.1875,10.9415
29863,-0.3998,1.2139,10.9439
29901,-0.3376,1.1732,11.0253
29995,-0.3974,1.2043,10.9080
30034,-0.4525,1.1229,11.0109
30072,-0.3639,1.1516,11.0301
30110,-0.4142,1.2402,10.9774
30148,-0.3232,1.1660,10.9415
30187,-0.3615,1.2019,11.0852
30225,-0.3184,1.1851,10.9583
30319,-0.4022,1.2067,11.0229
30358,-0.3879,1.1037,10.9942
30396,-0.3328,1.1109,10.8984
30434,-0.3280,1.1971,10.9343
30472,-0.3424,1.1851,10.9223
30510,-0.4022,1.2163,10.9678
30549,-0.3903,1.1636,10.9774
30643,-0.4142,1.2139,10.9846
30682,-0.3615,1.1947,10.9750
30720,-0.3208,1.1947,10.9942
30758,-0.3759,1.1684,10.9343
30796,-0.3304,1.2378,11.0229
30834,-0.3879,1.1444,10.8888
30872,-0.3831,1.1875,10.9439
30967,-0.2921,1.1779,10.9439
31006,-0.3998,1.1229,10.9798
31044,-0.3400,1.1372,10.9966
31082,-0.3879,1.1756,10.9343
31120,-0.3112,1.1181,10.9990
31158,-0.4022,1.2474,10.9894
31196,-0.3879,1.1468,10.8816
31293,-0.4070,1.2258,10.9630
31332,-0.3783,1.1875,11.0014
31371,-0.3759,1.1732,10.9678
31409,-0.4118,1.2330,10.9343
31447,-0.4118,1.1564,10.9247
31485,-0.3448,1.2163,10.9583
31523,-0.4286,1.2450,10.9846
31628,-0.3448,1.1971,10.9918
31667,-0.3472,1.1564,10.9487
31705,-0.3065,1.1851,11.0157
31744,-0.3448,1.1396,10.8888
31782,-0.3615,1.1995,10.9918
31820,-0.3783,1.2139,10.9152
31858,-0.3639,1.2139,11.0229
31963,-0.3519,1.2115,10.9511
32002,-0.3496,1.2210,10.9439
32040,-0.3304,1.1947,10.9942
32078,-0.3735,1.1875,10.9894
32116,-0.3615,1.2163,10.9583
32155,-0.3998,1.1827,10.9295
32193,-0.3065,1.1492,10.9271
32302,-0.3974,1.2139,10.9966
32341,-0.3591,1.1947,10.8888
32379,-0.3926,1.1612,10.9032
32417,-0.3926,1.1684,10.9607
32455,-0.3543,1.1349,10.9654
32493,-0.3807,1.2115,10.9798
32532,-0.3903,1.1636,10.9415
32637,-0.4190,1.1253,10.8936
32676,-0.3567,1.1732,10.8864
32714,-0.3136,1.2019,10.9128
32752,-0.3424,1.2163,10.9702
32790,-0.3831,1.2067,10.9966
32828,-0.3735,1.0918,10.9702
32866,-0.3663,1.1444,10.9319
32905,-0.3496,1.1851,10.9966
33016,-0.3735,1.2115,10.9607
33055,-0.3759,1.2234,10.9056
33093,-0.3256,1.1684,10.9846
33131,-0.3807,1.2210,11.0109
33169,-0.3567,1.1157,10.9846
33207,-0.3783,1.1684,10.9966
33245,-0.4118,1.2043,10.9487
33352,-0.3232,1.1803,10.9056
33391,-0.3711,1.1851,10.9128
33429,-0.3232,1.2043,10.9990
33467,-0.3998,1.1133,10.9798
33505,-0.3974,1.2091,11.0492
33543,-0.4166,1.1372,10.9247
33581,-0.3639,1.2091,10.9343
33686,-0.3998,1.1947,11.0277
33725,-0.4118,1.2330,10.9128
33764,-0.3926,1.1899,11.0109
33802,-0.3352,1.1947,10.9200
33840,-0.4214,1.2139,10.8745
33878,-0.3160,1.1875,10.9247
33916,-0.3280,1.2234,10.9990
34019,-0.3615,1.1923,10.9247
34058,-0.3496,1.1875,10.9032
34096,-0.3950,1.1516,10.9894
34134,-0.3663,1.1612,11.0349
34173,-0.3759,1.1564,11.0014
34211,-0.3591,1.1588,11.0445
34249,-0.3855,1.1564,10.9056
34356,-0.3807,1.2282,10.9295
34395,-0.4118,1.2426,10.9918
34433,-0.3591,1.1468,10.9774
34471,-0.3376,1.1708,11.0397
34509,-0.3831,1.1492,10.9822
34548,-0.3472,1.2210,10.9798
34586,-0.3232,1.1971,10.9056
34696,-0.3591,1.2163,10.9535
34735,-0.3639,1.2234,10.9630
34773,-0.3639,1.1923,10.9176
34811,-0.3352,1.1516,10.8960
34849,-0.3328,1.1923,10.9583
34887,-0.3879,1.1923,11.0014
34926,-0.3807,1.2139,10.9942
35035,-0.3974,1.1947,10.9630
35074,-0.4190,1.1875,10.9774
35112,-0.3352,1.1636,10.9415
35150,-0.3448,1.2306,11.0014
35188,-0.3926,1.1684,10.9583
35226,-0.3472,1.1875,10.9750
35264,-0.4501,1.1301,10.9750
35360,-0.3807,1.1492,10.9630
35399,-0.3998,1.1636,11.0109
35438,-0.3879,1.1756,10.9511
35476,-0.3615,1.1420,10.8649
35514,-0.4022,1.1684,10.9990
35552,-0.3974,1.2163,10.9630
35590,-0.3711,1.1971,10.9894
35699,-0.4094,1.2210,10.9463
35738,-0.3759,1.1516,10.9223
35777,-0.3328,1.1660,10.9128
35815,-0.3663,1.2043,10.9559
35853,-0.3759,1.1396,10.8984
35891,-0.3328,1.1732,10.9439
35929,-0.2921,1.1564,10.9152
36037,-0.3591,1.1468,10.9630
36076,-0.3328,1.1564,10.9415
36115,-0.3735,1.1085,10.9152
36154,-0.4070,1.2091,10.9966
36192,-0.3615,1.1564,10.9152
36230,-0.3950,1.1516,10.9798
36268,-0.4070,1.1851,10.9319
36376,-0.3519,1.2019,10.8840
36415,-0.4357,1.1875,10.9750
36454,-0.3903,1.2163,11.0229
36493,-0.3424,1.1684,10.9726
36532,-0.3950,1.1899,10.9607
36571,-0.3807,1.2450,11.0660
36609,-0.3687,1.2282,11.0061
36711,-0.1508,1.3024,11.1522
36750,-0.3472,0.8835,11.5448
36789,-0.4238,1.3886,10.2615
36828,-0.3400,1.1372,11.3150
36867,-0.3950,1.0678,11.1881
36905,-0.3663,1.1803,10.9056
36944,-0.4166,1.2402,10.7619
37047,-0.4094,1.2402,10.8793
37086,-0.3831,1.1827,10.9966
37125,-0.3663,1.1540,10.9846
37164,-0.3472,1.1708,10.9990
37203,-0.4477,1.1372,10.8721
37242,-0.3831,1.1995,10.9152
37281,-0.3759,1.1923,10.9918
37321,-0.4310,1.1253,11.0133
37427,-0.3496,1.1540,10.9654
37466,-0.3567,1.1540,10.9942
37505,-0.4190,1.2234,10.9319
37544,-0.3400,1.1899,11.0229
37583,-0.3065,1.1636,10.9726
37622,-0.3783,1.1875,10.9942
37661,-0.3496,1.1947,10.8649
37769,-0.3400,1.1732,10.9343
37808,-0.4142,1.1732,10.9966
37847,-0.3855,1.1827,10.9798
37886,-0.4046,1.2713,10.9702
37925,-0.3591,1.1875,11.0109
37964,-0.4310,1.1899,10.9319
38003,-0.4022,1.1923,10.9846
38107,-0.3160,1.1899,11.0157
38146,-0.3256,1.1588,11.0109
38185,-0.3496,1.1588,11.0133
38224,-0.3328,1.2139,10.9559
38263,-0.3639,1.0822,11.0325
38302,-0.3400,1.2091,10.9487
38341,-0.3639,1.1851,11.0014
38446,-0.3352,1.1756,10.8936
38486,-0.3328,1.1756,11.0301
38525,-0.3903,1.1779,10.8936
38564,-0.3687,1.2067,10.9702
38603,-0.3041,1.1636,11.0038
38642,-0.3711,1.2282,10.9894
38681,-0.3328,1.1899,10.9990
38789,-0.3424,1.1444,11.0325
38829,-0.3950,1.1684,11.0349
38868,-0.3591,1.1899,10.9487
38907,-0.4190,1.1660,11.0085
38946,-0.3783,1.1827,10.9343
38985,-0.3400,1.1827,10.9607
39024,-0.3735,1.1468,11.0205
39129,-0.3831,1.2186,10.9918
39169,-0.3208,1.2210,11.0804
39208,-0.3591,1.1756,11.0109
39247,-0.3519,1.1660,11.0445
39286,-0.3615,1.1372,10.9152
39325,-0.3879,1.1468,10.8721
39364,-0.3903,1.1875,10.9942
39473,-0.3519,1.2186,11.0157
39513,-0.3759,1.1732,10.9918
39552,-0.3472,1.1803,11.0181
39591,-0.3280,1.2163,10.8960
39630,-0.3472,1.1732,10.9271
39669,-0.3376,1.1827,10.9367
39708,-0.3807,1.2067,10.9080
39815,-0.3591,1.1803,11.0085
39854,-0.3711,1.1660,10.9487
39893,-0.3831,1.1851,10.9008
39932,-0.4094,1.1971,10.9607
39971,-0.4046,1.2019,11.0061
40010,-0.3855,1.2234,10.9846
40049,-0.3663,1.2067,10.9630
40156,-0.3496,1.1732,10.9583
40196,-0.4094,1.2617,10.9032
40236,-0.4142,1.1779,10.9271
40275,-0.4357,1.1803,11.0085
40314,-0.4405,1.1756,10.9152
40353,-0.3543,1.1995,10.9271
40392,-0.4022,1.2043,10.9966
40498,-0.3831,1.2019,10.9918
40538,-0.3328,1.1827,11.0181
40577,-0.3400,1.1588,11.0181
40616,-0.3783,1.1756,10.9535
40655,-0.3472,1.2115,11.0181
40694,-0.3831,1.1612,10.8649
40733,-0.3735,1.2139,10.9463
40825,-0.3615,1.1923,10.9343
40865,-0.3136,1.2043,10.9295
40904,-0.4022,1.2115,10.9415
40943,-0.3352,1.2354,11.0349
40982,-0.3879,1.2163,10.9152
41022,-0.3615,1.1349,10.9439
41061,-0.3687,1.2067,10.9319
41167,-0.3711,1.1444,10.9702
41207,-0.3496,1.1516,10.9678
41246,-0.3376,1.2019,10.9295
41285,-0.3567,1.1588,10.9702
41324,-0.3496,1.1875,10.9966
41363,-0.3400,1.1564,10.9104
41403,-0.3879,1.2019,10.9678
41513,-0.3663,1.1827,10.9750
41553,-0.3519,1.2091,10.9391
41592,-0.3567,1.2258,10.9008
41631,-0.3352,1.1396,10.9104
41670,-0.3903,1.1229,10.9104
41709,-0.3567,1.1947,11.0229
41748,-0.4142,1.1851,10.9798
41788,-0.3831,1.1013,10.9176
41894,-0.4022,1.1827,11.0085
41934,-0.3807,1.2043,11.1330
41973,-0.3663,1.1301,10.9535
42012,-0.4142,1.1923,10.9726
42051,-0.3615,1.1947,10.9607
42090,-0.3735,1.2234,10.9870
42129,-0.3567,1.1037,10.9415
42236,-0.3041,1.1899,10.9319
42276,-0.3783,1.1779,10.9080
42315,-0.3472,1.1947,10.9295
42354,-0.3232,1.1684,10.8505
42393,-0.3496,1.1253,10.9846
42432,-0.3879,1.1061,10.9774
42471,-0.3783,1.1803,10.9032
42574,-0.3519,1.1899,11.0061
42614,-0.3567,1.1732,10.9295
42654,-0.3807,1.2139,10.9942
42693,-0.3519,1.1516,10.9798
42732,-0.4549,1.2282,10.9295
42771,-0.3831,1.1564,10.9391
42810,-0.3974,1.1660,10.9918
42914,-0.3687,1.1708,10.9295
42954,-0.4118,1.1875,10.9247
42993,-0.4166,1.1899,11.0301
43032,-0.4046,1.2115,11.0038
43072,-0.3496,1.1923,10.9798
43111,-0.3184,1.2258,10.9559
43150,-0.2993,1.1660,11.0014
43254,-0.3448,1.2067,11.0756
43294,-0.3496,1.0965,10.9894
43333,-0.3926,1.1995,10.9750
43372,-0.3879,1.1516,11.0468
43411,-0.4381,1.1660,10.9487
43451,-0.3663,1.2282,11.0109
43490,-0.3879,1.2330,10.9128
43592,-0.3759,1.2258,10.9032
43632,-0.3663,1.2330,10.9200
43671,-0.3376,1.1444,10.9846
43710,-0.3687,1.1779,10.9726
43749,-0.3639,1.1660,10.9104
43788,-0.3400,1.1803,10.8816
43828,-0.3543,1.1803,11.0397
43930,-0.3448,1.1708,10.9152
43970,-0.3926,1.2091,10.9750
44009,-0.2945,1.1660,10.9990
44048,-0.3926,1.1947,11.0780
44087,-0.3615,1.1181,11.0109
44126,-0.3065,1.2282,10.9750
44165,-0.3783,1.1947,11.0492
44274,-0.3519,1.1827,10.9918
44314,-0.3831,1.1420,10.8697
44353,-0.4262,1.1612,10.9583
44392,-0.3496,1.2234,10.9726
44431,-0.3160,1.1803,10.9702
44470,-0.3160,1.2186,10.9798
44509,-0.3759,1.1636,11.0397
44615,-0.3807,1.2450,10.9726
44655,-0.3448,1.1660,10.9607
44695,-0.3543,1.1875,10.8840
44734,-0.3280,1.1564,11.0277
44773,-0.4645,1.1660,10.9295
44812,-0.3663,1.1588,10.9822
44851,-0.3615,1.1708,10.9319
44962,-0.3926,1.2043,10.8601
45002,-0.3472,1.1899,10.9702
45041,-0.3089,1.1372,10.9822
45080,-0.3663,1.2067,10.9223
45120,-0.3998,1.1037,10.9894
45159,-0.2921,1.1636,10.9200
45198,-0.3304,1.1708,11.0133
45305,-0.3783,1.1803,11.0133
45345,-0.4262,1.2210,10.9487
45384,-0.4381,1.1660,10.9918
45423,-0.2945,1.1732,10.8338
45462,-0.3543,1.1277,11.0445
45502,-0.3543,1.1660,10.9822
45541,-0.4094,1.1612,10.9774
45651,-0.3639,1.1684,10.9583
45691,-0.3879,1.2139,11.0109
45730,-0.3807,1.1756,10.9487
45769,-0.3639,1.1660,10.9295
45808,-0.3974,1.1540,10.9583
45847,-0.3208,1.1564,10.8984
45887,-0.3687,1.2139,10.9056
45994,-0.4166,1.2234,10.9559
46034,-0.3831,1.1349,10.9583
46073,-0.3974,1.2809,10.9415
46112,-0.3352,1.2139,11.0038
46151,-0.3759,1.1540,10.9822
46190,-0.3831,1.1732,10.9487
46229,-0.4645,1.2139,10.9295
46269,-0.3926,1.2210,10.8601
46367,-0.4214,1.2115,10.9367
46407,-0.4405,1.1636,10.9487
46446,-0.3376,1.2354,10.9391
46485,-0.3472,1.1995,10.9176
46524,-0.3424,1.1660,10.8888
46563,-0.4453,1.2426,11.0014
46602,-0.3567,1.2570,10.9511
46711,-0.3448,1.1349,10.8912
46751,-0.4070,1.1803,10.9439
46790,-0.3711,1.2210,10.9798
46829,-0.4190,1.2043,10.9583
46868,-0.3472,1.2115,11.0445
46907,-0.3831,1.1325,10.9583
46946,-0.4645,1.1229,10.9583
47053,-0.3615,1.1779,11.0253
47093,-0.3567,1.2163,10.8816
47133,-0.3496,1.1564,10.9415
47172,-0.4118,1.1899,11.0205
47211,-0.3831,1.1899,10.9798
47250,-0.3448,1.2186,11.0181
47289,-0.3687,1.1756,10.9487
47396,-0.3974,1.2163,10.9463
47436,-0.3448,1.2210,10.9535
47475,-0.3663,1.2210,10.9487
47514,-0.3496,1.2091,10.8553
47554,-0.4262,1.1612,11.0971
47593,-0.3615,1.2594,10.9487
47632,-0.3567,1.1660,11.0038
47735,-0.3639,1.1588,10.9966
47775,-0.3400,1.1660,10.9894
47815,-0.2753,1.1708,10.9750
47854,-0.3663,1.1779,10.9942
47893,-0.3136,1.2067,10.8793
47933,-0.3831,1.1995,10.8625
47972,-0.4334,1.2210,10.9295
48077,-0.4334,1.1420,10.9104
48117,-0.4022,1.1851,10.9894
48157,-0.3256,1.1756,10.9918
48196,-0.4022,1.1349,10.8984
48236,-0.3400,1.2043,10.8936
48275,-0.3615,1.1564,10.9798
48315,-0.3352,1.2043,10.9463
48419,-0.3424,1.1923,10.9966
48459,-0.3376,1.1732,10.9750
48499,-0.3591,1.1827,10.9343
48538,-0.3472,1.1803,10.9080
48577,-0.3280,1.2426,10.9774
48616,-0.3711,1.1420,10.8409
48655,-0.3496,1.1612,10.9295
48761,-0.3879,1.1636,10.8816
48801,-0.3639,1.1612,10.8936
48841,-0.3280,1.1971,10.9750
48881,-0.3400,1.2210,10.9678
48920,-0.3831,1.1995,10.9846
48959,-0.3496,1.1181,11.0325
48998,-0.4046,1.1851,10.9559
49103,-0.3998,1.1923,10.9511
49143,-0.3663,1.1468,11.0540
49183,-0.3639,1.1612,10.9607
49223,-0.4070,1.1229,10.9966
49263,-0.3903,1.2330,10.9822
49303,-0.4022,1.1612,10.9583
49343,-0.3926,1.1444,10.9032
49449,-0.3424,1.1612,10.8840
49489,-0.3998,1.2737,10.9439
49529,-0.3472,1.1612,10.9152
49569,-0.3424,1.1372,10.8601
49609,-0.3352,1.1085,11.0756
49649,-0.3879,1.2306,11.0014
49689,-0.3519,1.1779,10.9678
49795,-0.3950,1.2139,10.9200
49835,-0.3591,1.1803,10.9271
49875,-0.3855,1.1420,11.0014
49915,-0.3639,1.1756,11.0085
49955,-0.3783,1.1516,10.9583
49995,-0.3160,1.2186,11.0277
50035,-0.2897,1.2019,10.9798
50141,-0.3496,1.1684,10.9511
50181,-0.3998,1.2570,10.9774
50221,-0.3855,1.1779,10.9966
50261,-0.3974,1.2210,10.9918
50301,-0.4142,1.1708,10.9128
50341,-0.3879,1.2186,10.9966
50381,-0.3663,1.1827,10.9654
50488,-0.3711,1.2019,10.9008
50528,-0.3280,1.2091,10.9798
50568,-0.3519,1.2665,10.9535
50608,-0.3711,1.2043,10.9607
50648,-0.3687,1.2450,10.9798
50687,-0.3759,1.1325,10.9966
50727,-0.4094,1.1372,10.9128
50767,-0.4262,1.2258,11.0205
50874,-0.3639,1.1971,10.9223
50914,-0.3448,1.2258,10.9152
50954,-0.3759,1.1779,10.9702
50994,-0.3879,1.1612,10.9032
51034,-0.3376,1.1756,10.9415
51074,-0.3280,1.1875,10.8960
51114,-0.2897,1.1420,10.9128
51218,-0.4070,1.1660,10.9247
51256,-0.3831,1.1875,10.9367
51293,-0.3448,1.2378,10.9439
51330,-0.3591,1.2594,10.9200
51367,-0.3615,1.1708,10.8984
51404,-0.3089,1.1660,10.9391
51441,-0.3687,1.1588,10.9654
51545,-0.3472,1.1468,10.9176
51583,-0.3711,1.1875,10.8362
51621,-0.3496,1.2043,10.9726
51659,-0.3783,1.2163,11.0445
51696,-0.3735,1.1779,10.9008
51734,-0.3472,1.1708,10.9535
51771,-0.3663,1.2354,10.8697
51865,-0.3687,1.2139,10.9463
51903,-0.3160,1.1947,11.0038
51941,-0.3974,1.2378,10.9822
51979,-0.3855,1.1779,10.9367
52017,-0.3591,1.2163,10.8936
52055,-0.3472,1.1995,10.9152
52093,-0.4310,1.1899,10.9750
52205,-0.3879,1.2139,10.9750
52243,-0.3543,1.1588,10.9726
52281,-0.4118,1.1732,10.9463
52319,-0.4214,1.1708,10.8840
52357,-0.3735,1.1947,10.9607
52395,-0.3496,1.2043,10.9702
52432,-0.3687,1.1995,10.9032
52538,-0.3855,1.1875,11.0109
52576,-0.3519,1.1732,10.9846
52614,-0.3687,1.2163,11.0133
52652,-0.3926,1.2282,11.0540
52690,-0.3065,1.1971,10.9846
52728,-0.3472,1.1253,10.9630
52766,-0.3687,1.1372,10.9008
52871,-0.3280,1.1732,10.8840
52909,-0.3807,1.1205,10.9343
52947,-0.3496,1.2282,11.0038
52985,-0.3232,1.2019,10.9176
53023,-0.3879,1.1516,11.0157
53061,-0.3735,1.1684,11.0014
53099,-0.3903,1.1851,10.9271
53208,-0.4166,1.2426,10.9990
53246,-0.3591,1.2043,11.0229
53284,-0.4070,1.2163,10.9559
53322,-0.4118,1.1971,10.9367
53360,-0.3711,1.1301,11.0133
53398,-0.3472,1.2330,10.9439
53436,-0.3879,1.1947,10.9894
53533,-0.3783,1.1923,10.9726
53571,-0.3424,1.1588,10.8912
53609,-0.3256,1.1827,10.9271
53647,-0.3687,1.1995,11.0109
53685,-0.3208,1.1013,10.9822
53723,-0.4046,1.2186,10.9463
53761,-0.3519,1.2306,10.9223
53858,-0.4142,1.2019,10.9726
53896,-0.4118,1.1660,10.9415
53934,-0.3926,1.2378,10.9702
53972,-0.3519,1.1971,10.8338
54010,-0.3472,1.1229,10.9583
54048,-0.3855,1.1636,11.0492
54086,-0.3400,1.1732,10.9271
54180,-0.3663,1.2163,10.9630
54218,-0.3903,1.1516,11.0109
54256,-0.3543,1.1372,10.9846
54294,-0.3615,1.1492,10.9080
54332,-0.4310,1.1923,10.9032
54370,-0.4142,1.2019,10.9343
54408,-0.3687,1.1756,10.9463
54501,-0.3519,1.1468,10.9798
54539,-0.3519,1.1660,10.9702
54577,-0.3926,1.1444,10.9271
54615,-0.3519,1.1779,10.9702
54653,-0.3831,1.1923,10.8649
54691,-0.3639,1.2282,10.9702
54729,-0.3543,1.1899,10.9559
54823,-0.3783,1.1636,11.0708
54862,-0.4334,1.2091,10.9247
54900,-0.3017,1.1732,10.9104
54938,-0.3663,1.1301,10.9319
54976,-0.3184,1.1756,10.9200
55014,-0.4381,1.1516,10.9822
55052,-0.3687,1.1732,11.0109
55090,-0.3855,1.1827,10.9630
55184,-0.4405,1.1492,11.0157
55223,-0.3496,1.1756,11.0014
55261,-0.4022,1.1923,10.9152
55299,-0.3472,1.2282,10.9894
55337,-0.3855,1.1564,11.0325
55375,-0.3903,1.2067,10.9583
55413,-0.3974,1.1875,10.9128
55506,-0.3328,1.2210,10.8960
55544,-0.3879,1.1684,10.9966
55582,-0.3687,1.2498,11.0157
55620,-0.3376,1.2067,10.9487
55658,-0.3735,1.1708,10.8505
55696,-0.3711,1.2378,10.9750
55734,-0.4046,1.1588,10.9439
55828,-0.3926,1.1923,10.9846
55867,-0.3328,1.2258,11.0708
55905,-0.3903,1.2139,10.9247
55943,-0.3783,1.1468,10.9750
55981,-0.3496,1.1851,10.9822
56019,-0.3567,1.2115,11.0277
56057,-0.3807,1.2258,10.9319
56151,-0.3112,1.2115,10.8074
56189,-0.3831,1.1588,11.0014
56227,-0.3831,1.2163,10.9678
56265,-0.3639,1.2306,10.9750
56303,-0.4717,1.2091,11.0109
56341,-0.3879,1.2019,10.9774
56379,-0.3783,1.1899,10.9822
56482,-0.3448,1.1372,10.9894
56521,-0.3687,1.2019,10.9439
56559,-0.3831,1.2115,10.9630
56597,-0.3735,1.2186,10.9415
56635,-0.3831,1.1756,10.9367
56673,-0.3903,1.1588,10.9104
56711,-0.3567,1.2378,10.8625
56815,-0.3855,1.1516,10.9702
56854,-0.4190,1.2043,10.9750
56892,-0.3663,1.1827,11.0014
56930,-0.3879,1.2210,10.9104
56968,-0.3591,1.1779,10.9463
57006,-0.3687,1.1468,10.9535
57044,-0.3448,1.1349,10.8960
57153,-0.3160,1.1420,11.0684
57192,-0.4214,1.1468,10.9176
57230,-0.3663,1.2234,11.0349
57268,-0.3759,1.2139,10.8769
57306,-0.3543,1.1205,11.0181
57344,-0.3663,1.1803,10.9367
57382,-0.3400,1.2115,10.8793
57491,-0.3783,1.2163,10.9223
57529,-0.3543,1.2019,10.9966
57567,-0.3735,1.1540,10.9343
57605,-0.3089,1.1708,10.9271
57643,-0.3591,1.1396,11.0109
57681,-0.3352,1.1612,10.9391
57719,-0.3424,1.2163,10.9559
57824,-0.3926,1.2067,10.8577
57863,-0.3831,1.2115,11.0133
57902,-0.3519,1.2115,11.0277
57940,-0.3112,1.1756,10.9559
57978,-0.3472,1.2043,10.9008
58016,-0.4046,1.1947,11.0038
58054,-0.4166,1.2186,10.9271
58159,-0.3591,1.1684,11.0085
58197,-0.3256,1.1827,10.9223
58235,-0.3879,1.1875,11.0301
58273,-0.3017,1.1564,10.9439
58311,-0.4142,1.2234,11.0301
58349,-0.3711,1.2234,10.9798
58387,-0.3591,1.1325,10.9008
58492,-0.4046,1.1947,11.0421
58531,-0.3663,1.1181,10.9918
58569,-0.3711,1.1564,10.9894
58607,-0.3519,1.1803,10.8864
58645,-0.3591,1.1875,11.0181
58684,-0.3663,1.1732,10.8912
58722,-0.3591,1.1253,10.9223
58819,-0.3831,1.2139,10.9104
58858,-0.3543,1.1540,10.9942
58896,-0.3879,1.1588,10.9630
58934,-0.3855,1.1396,10.9487
58972,-0.3879,1.1827,10.9104
59010,-0.3376,1.2186,10.9152
59048,-0.3783,1.1756,10.9439
59142,-0.3280,1.1779,11.0325
59181,-0.4142,1.1756,10.9511
59219,-0.3998,1.2330,10.9870
59257,-0.3208,1.2019,10.9367
59295,-0.3711,1.1540,10.9894
59333,-0.3831,1.1899,10.9391
59371,-0.3591,1.1899,10.9343
59409,-0.4166,1.1540,11.0277
59504,-0.3591,1.1899,10.9343
59543,-0.3424,1.1684,10.9247
59581,-0.3783,1.1827,10.9535
59619,-0.3903,1.1612,10.9822
59657,-0.3232,1.1947,10.9439
59695,-0.3663,1.1205,11.0181
59733,-0.3903,1.1349,11.0445
59828,-0.3855,1.1349,10.9942
59866,-0.3687,1.1947,10.9846
59904,-0.3328,1.2282,10.9798
59942,-0.3017,1.1444,10.9630
59980,-0.3615,1.1827,10.9583
60018,-0.3496,1.0822,10.9630
60056,-0.3663,1.1756,10.9726
60150,-0.3567,1.1947,10.9439
60189,-0.3328,1.1133,10.9104
60228,-0.3663,1.1612,10.9247
60266,-0.3807,1.1779,10.9271
60304,-0.3208,1.2210,10.9032
60342,-0.3232,1.2019,10.8050
60380,-0.4046,1.2210,10.9726
60477,-0.3472,1.1708,11.0349
60516,-0.4070,1.1420,11.0157
60554,-0.3112,1.2617,10.9583
60592,-0.3496,1.2139,11.0325
60630,-0.3759,1.1684,10.9894
60668,-0.3304,1.1756,10.9367
60706,-0.3950,1.2091,10.9104
60803,-0.3400,1.2210,10.9583
60842,-0.3400,1.2282,10.9846
60880,-0.3400,1.1851,10.9415
60918,-0.3328,1.2330,10.9559
60956,-0.4022,1.2354,10.9750
60994,-0.3519,1.1708,10.9942
61032,-0.3735,1.1588,10.9559
61126,-0.3543,1.1756,10.9152
61165,-0.3472,1.1827,10.9966
61203,-0.3543,1.1947,10.9918
61241,-0.3950,1.1923,10.8840
61279,-0.3831,1.2091,10.9487
61317,-0.3711,1.1612,10.8984
61355,-0.3567,1.1492,10.9678
61453,-0.3424,1.2115,10.9271
61492,-0.3735,1.1803,10.9056
61530,-0.3998,1.1756,10.9128
61568,-0.3783,1.2258,10.9367
61606,-0.3926,1.2139,10.9367
61644,-0.3831,1.1444,10.9822
61682,-0.3065,1.1947,10.9032
61788,-0.3687,1.1708,10.8936
61826,-0.3783,1.1612,10.9463
61864,-0.3639,1.2234,10.9678
61902,-0.3519,1.1732,10.9870
61940,-0.3184,1.1851,10.9678
61978,-0.4214,1.1420,10.9583
62016,-0.3519,1.1444,10.9152
62121,-0.3328,1.1803,11.0014
62160,-0.3448,1.2019,10.8505
62199,-0.3663,1.1420,10.9966
62237,-0.3783,1.2450,10.9056
62275,-0.4190,1.1492,10.9583
62313,-0.3184,1.0630,10.8673
62351,-0.3496,1.2043,11.0325
62456,-0.4166,1.1732,10.8912
62495,-0.4142,1.1995,10.9702
62533,-0.3615,1.2139,10.9918
62571,-0.3376,1.1492,10.9726
62610,-0.3639,1.1612,10.9894
62648,-0.3974,1.2139,10.9200
62686,-0.3496,1.2498,10.9774
62795,-0.3519,1.2115,11.0373
62834,-0.4381,1.1971,10.9535
62872,-0.3448,1.2378,10.9607
62910,-0.3400,1.2091,10.9583
62948,-0.3328,1.2210,10.9798
62987,-0.3831,1.1444,10.9822
63025,-0.3376,1.2378,10.9415
63130,-0.4549,1.1756,11.0397
63169,-0.4597,1.1779,10.9918
63207,-0.4214,1.1444,10.9032
63245,-0.4142,1.1899,11.0468
63283,-0.3496,1.1827,10.9200
63321,-0.3184,1.1923,10.9367
63360,-0.3807,1.2570,10.9678
63468,-0.3926,1.1660,11.0229
63507,-0.3041,1.1708,10.9678
63545,-0.4118,1.1564,11.0780
63583,-0.3831,1.1803,10.9319
63621,-0.4022,1.1971,10.9702
63659,-0.2849,1.1325,10.8864
63697,-0.3950,1.2186,10.9750
63735,-0.3472,1.1947,10.9990
63842,-0.3974,1.2330,11.0014
63881,-0.3400,1.1420,11.0061
63919,-0.3448,1.2091,10.8840
63957,-0.3448,1.1612,10.9295
63995,-0.3639,1.2067,10.9319
64033,-0.3687,1.1612,10.9966
64071,-0.3807,1.1684,11.0397
64167,-0.2849,1.1851,10.9822
64205,-0.3711,1.1708,10.9487
64243,-0.3639,1.1995,10.9990
64281,-0.3328,1.2210,10.9942
64319,-0.4118,1.1061,10.9511
64357,-0.3136,1.2019,10.9990
64395,-0.3496,1.1708,10.9463
64492,-0.3831,1.1851,10.9319
64531,-0.4142,1.0918,11.0157
64569,-0.3879,1.1971,11.0205
64607,-0.3639,1.1971,10.8840
64645,-0.3831,1.2354,10.9942
64683,-0.3400,1.1085,10.9870
64721,-0.4286,1.1349,10.9415
64815,-0.3448,1.1995,10.9223
64854,-0.2993,1.2043,10.8888
64892,-0.3304,1.2019,10.9774
64930,-0.3591,1.1660,10.8745
64969,-0.3208,1.1349,10.9654
65007,-0.3879,1.1779,10.9152
65045,-0.3783,1.1540,11.0014
65139,-0.3639,1.2426,10.9654
65178,-0.4381,1.2330,10.9463
65216,-0.2801,1.2067,11.0468
65254,-0.3280,1.1684,10.9630
65292,-0.3591,1.1732,10.9200
65331,-0.3735,1.1803,11.0540
65369,-0.3711,1.1732,11.0205
65466,-0.3496,1.1205,10.9463
65505,-0.3759,1.1181,10.9439
65543,-0.3591,1.1396,10.9319
65581,-0.3687,1.2019,10.8290
65619,-0.3232,1.1277,10.9271
65657,-0.3496,1.1899,11.0660
65695,-0.3663,1.1420,10.9750
65793,-0.3424,1.1564,10.9439
65832,-0.4142,1.1540,10.9128
65870,-0.3615,1.1420,10.9391
65908,-0.4238,1.1803,11.0397
65946,-0.3663,1.2210,10.9678
65984,-0.3496,1.1851,10.9894
66022,-0.3567,1.1827,10.9894
66117,-0.3112,1.1229,10.9535
66155,-0.3639,1.2570,11.0038
66193,-0.3424,1.1971,10.9367
66231,-0.3400,1.1564,10.9271
66269,-0.3687,1.1468,10.9798
66307,-0.3735,1.2594,10.9415
66345,-0.4094,1.1875,10.9583
66439,-0.3496,1.1516,10.9343
66478,-0.3208,1.1803,10.9176
66517,-0.3831,1.2067,11.0373
66555,-0.3687,1.2019,10.8697
66593,-0.3328,1.1923,10.9798
66631,-0.3376,1.1564,10.9319
66669,-0.3543,1.2139,10.9247
66766,-0.4381,1.1875,10.9726
66805,-0.4118,1.2282,10.9319
66843,-0.3759,1.1971,10.9463
66881,-0.3448,1.2115,10.9511
66920,-0.3591,1.1660,10.9511
66958,-0.3543,1.1756,10.9607
66996,-0.3711,1.2210,10.9319
67105,-0.3041,1.1708,11.0468
67144,-0.4046,1.2234,10.9343
67182,-0.4381,1.1827,10.9271
67220,-0.3472,1.2306,11.0301
67258,-0.4453,1.1564,10.9678
67297,-0.3136,1.1420,10.9822
67335,-0.3496,1.1612,10.9942
67440,-0.3639,1.2330,10.9104
67479,-0.3926,1.1684,10.9152
67517,-0.3424,1.1684,11.0157
67555,-0.3687,1.1181,11.0229
67593,-0.3998,1.1803,10.9487
67631,-0.4118,1.1875,10.9750
67670,-0.3352,1.2019,11.0277
67776,-0.3472,1.2905,10.9726
67815,-0.2921,1.1803,10.9271
67853,-0.4118,1.2210,10.9343
67891,-0.3376,1.1564,10.9439
67929,-0.3089,1.0726,11.0253
67967,-0.3903,1.2210,10.8984
68005,-0.3256,1.1540,10.9702
68043,-0.3950,1.1971,10.9367
68149,-0.3567,1.1636,10.9319
68188,-0.3424,1.2043,11.0061
68226,-0.3783,1.1947,10.9894
68264,-0.3496,1.2019,10.9535
68302,-0.3519,1.2186,10.9678
68340,-0.3017,1.1732,11.0157
68378,-0.3998,1.2043,10.9391
68487,-0.3280,1.1540,10.9535
68527,-0.3543,1.1516,10.9439
68565,-0.3041,1.1349,11.0038
68602,-0.3184,1.1157,11.0014
68639,-0.3280,1.2570,11.0085
68676,-0.3879,1.1875,10.9559
68781,-0.3496,1.2067,11.0588
68819,-0.3256,1.1708,10.9439
68857,-0.3998,1.1803,10.9104
68894,-0.3615,1.1947,10.9343
68932,-0.2993,1.1181,10.9319
68969,-0.3184,1.1779,10.9726
69006,-0.4094,1.1420,11.0014
69111,-0.3472,1.1971,10.9607
69149,-0.3496,1.1564,10.9630
69186,-0.3974,1.2067,10.9607
69223,-0.3926,1.1971,10.9367
69260,-0.2825,1.1372,10.9343
69298,-0.3232,1.2234,10.9104
69335,-0.2945,1.1564,10.9152
69429,-0.3783,1.1396,10.9918
69467,-0.3807,1.1540,11.0349
69505,-0.3160,1.1827,10.9487
69542,-0.3735,1.1708,10.9870
69579,-0.3256,1.1995,10.9511
69616,-0.3256,1.2067,10.9415
69654,-0.3903,1.2067,10.9271
69748,-0.3663,1.1827,10.9535
69786,-0.3567,1.2091,10.8960
69824,-0.3496,1.1636,11.0325
69862,-0.3376,1.2043,10.9247
69899,-0.3424,1.1516,10.9822
69936,-0.3759,1.2737,11.0349
69974,-0.3400,1.1468,10.9918
70069,-0.3711,1.1875,10.9918
70107,-0.3280,1.1564,10.9271
70145,-0.3615,1.1372,10.9008
70182,-0.4118,1.2067,10.9391
70219,-0.3663,1.1588,10.9798
70256,-0.4118,1.2019,10.9511
70293,-0.3711,1.1372,10.9343
70387,-0.3352,1.2115,10.9966
70425,-0.4046,1.1109,11.0397
70463,-0.3352,1.1851,10.9511
70501,-0.3759,1.1947,10.9247
70539,-0.3831,1.1779,10.9583
70577,-0.4094,1.1516,10.9200
70615,-0.3280,1.2163,10.9511
70709,-0.3496,1.1875,10.9247
70747,-0.3831,1.1492,10.9750
70785,-0.4262,1.1827,11.0038
70823,-0.3831,1.1923,11.0421
70861,-0.3376,1.1660,10.9080
70899,-0.3759,1.1660,10.9295
70937,-0.4262,1.1420,10.9654
71034,-0.3639,1.2067,10.9966
71072,-0.3567,1.1827,10.9894
71110,-0.3543,1.2067,10.9032
71148,-0.3926,1.1181,10.8936
71186,-0.3615,1.1564,10.9152
71224,-0.3496,1.1971,11.0038
71262,-0.4166,1.1827,10.9152
71359,-0.3687,1.2091,10.9008
71397,-0.4022,1.1205,10.9487
71435,-0.3472,1.1995,10.9247
71473,-0.4214,1.1732,10.9942
71511,-0.3974,1.1301,10.8649
71549,-0.3184,1.1875,10.9271
71586,-0.4022,1.1708,10.8553
71681,-0.3328,1.1444,10.9319
71719,-0.3280,1.1803,10.9032
71757,-0.3376,1.2330,10.9487
71795,-0.3998,1.1636,10.9415
71833,-0.3615,1.2234,10.8984
71871,-0.3567,1.1660,10.9439
71909,-0.3807,1.1420,10.8888
72003,-0.2825,1.1923,10.9128
72041,-0.4262,1.1444,10.9343
72079,-0.3041,1.1612,11.0109
72117,-0.3903,1.2306,10.9726
72155,-0.3974,1.1899,11.0014
72193,-0.3472,1.2306,10.9966
72231,-0.3783,1.2234,10.9391
72269,-0.3184,1.1827,11.0014
72379,-0.3591,1.2115,10.9415
72417,-0.3903,1.1684,10.9846
72455,-0.3448,1.2139,10.9415
72493,-0.3543,1.1612,10.9439
72531,-0.4190,1.1013,10.9343
72569,-0.3543,1.1971,10.9319
72607,-0.4094,1.1349,10.9391
72715,-0.3759,1.2067,10.9223
72753,-0.3400,1.1660,10.9008
72791,-0.4070,1.1540,10.9535
72829,-0.3831,1.1923,10.9750
72867,-0.2993,1.1947,10.9487
72905,-0.3448,1.2210,11.0445
72943,-0.3855,1.2258,10.9415
73048,-0.3831,1.1372,10.9990
73086,-0.4334,1.2019,11.0157
73124,-0.3639,1.1803,11.0038
73162,-0.3711,1.1732,10.8577
73200,-0.3304,1.1995,10.9678
73238,-0.3328,1.2258,10.9367
73276,-0.3903,1.1420,10.9942
73381,-0.3974,1.2258,10.9870
73419,-0.3855,1.1875,11.0109
73457,-0.4070,1.2043,10.9559
73495,-0.3735,1.1492,10.9343
73533,-0.3328,1.1588,10.9894
73571,-0.3184,1.1899,10.8888
73609,-0.3376,1.1732,10.9990
73712,-0.3567,1.2019,10.9080
73750,-0.3663,1.1827,10.9942
73788,-0.3735,1.1708,10.9295
73826,-0.3543,1.2019,10.9774
73864,-0.3879,1.1803,10.9942
73902,-0.3711,1.2210,10.9918
73940,-0.3783,1.1684,10.9774
74046,-0.3663,1.2091,10.9607
74084,-0.3735,1.1612,10.9918
74122,-0.3472,1.2330,10.9798
74160,-0.3735,1.2330,10.8816
74198,-0.3831,1.1349,10.9463
74236,-0.3256,1.1349,10.9511
74274,-0.3759,1.1875,10.9152
74384,-0.3615,1.1851,10.9750
74422,-0.2777,1.1468,10.8888
74460,-0.3041,1.1899,10.9439
74498,-0.3376,1.1301,11.0229
74536,-0.3400,1.1756,10.9439
74574,-0.3783,1.1540,10.8888
74612,-0.4046,1.1660,10.9200
74709,-0.3639,1.1636,10.9654
74747,-0.3232,1.2067,10.9295
74785,-0.3424,1.1013,10.9415
74823,-0.2873,1.2282,10.8936
74861,-0.3879,1.1803,10.9415
74899,-0.4142,1.1779,10.9200
74937,-0.3855,1.1660,10.9415
75034,-0.3950,1.2234,10.9343
75073,-0.4070,1.1756,10.9726
75111,-0.3639,1.2163,10.9822
75149,-0.3424,1.1708,11.0014
75187,-0.4214,1.1827,10.9439
75225,-0.3400,1.2378,11.0109
75263,-0.3735,1.1660,10.8673
75357,-0.3472,1.1995,10.9990
75395,-0.3112,1.1396,10.9343
75433,-0.3879,1.2067,10.9918
75471,-0.3591,1.2282,10.8577
75509,-0.3639,1.2019,10.9559
75547,-0.3879,1.2186,10.9463
75585,-0.3567,1.1229,10.9439
75679,-0.3591,1.2163,10.9367
75718,-0.3974,1.2186,10.9678
75756,-0.3256,1.2354,10.9918
75794,-0.3903,1.1636,10.9104
75832,-0.4070,1.1301,11.0397
75870,-0.3519,1.1372,10.9056
75908,-0.3136,1.1588,10.9487
76002,-0.3591,1.1588,10.9726
76041,-0.4310,1.3527,10.9798
76079,-0.3543,1.1444,10.9726
76117,-0.3974,1.1444,10.8888
76155,-0.4214,1.1660,10.9559
76193,-0.3687,1.1588,10.8840
76231,-0.3232,1.2258,10.9894
76269,-0.3807,1.1349,10.9008
76366,-0.2993,1.1660,10.9942
76405,-0.3735,1.1827,10.8840
76443,-0.3711,1.2163,11.0109
76481,-0.2897,1.1875,10.9966
76519,-0.3615,1.1947,10.9702
76557,-0.3759,1.2043,10.9990
76595,-0.4118,1.1803,11.0804
76696,-0.3687,1.1708,11.0038
76734,-0.4118,1.1636,10.9176
76772,-0.3639,1.1588,10.9630
76810,-0.4070,1.1947,10.8529
76848,-0.3807,1.1564,10.9678
76886,-0.3711,1.1540,10.9798
76924,-0.3519,1.1851,10.9104
77018,-0.3950,1.1492,11.0014
77057,-0.3807,1.1444,10.9415
77095,-0.2753,1.1851,11.0445
77133,-0.3065,1.2546,10.9678
77171,-0.3735,1.1732,11.0109
77209,-0.3903,1.2186,10.9200
77247,-0.3232,1.1899,10.9415
77344,-0.3328,1.1205,11.0229
77383,-0.3352,1.1492,10.9583
77421,-0.3735,1.1372,10.9846
77459,-0.3687,1.1899,10.8194
77497,-0.3687,1.1516,10.9032
77535,-0.3591,1.1851,10.9439
77573,-0.3424,1.1684,10.9223
77681,-0.3065,1.1947,10.8409
77720,-0.3041,1.1253,10.9080
77758,-0.3184,1.1468,10.9295
77796,-0.4166,1.2067,10.9822
77834,-0.3855,1.1875,11.0468
77873,-0.3472,1.1971,10.9678
77911,-0.3926,1.0942,10.8984
78016,-0.3639,1.2067,10.9894
78055,-0.3424,1.1779,11.0038
78093,-0.3903,1.1851,10.8912
78131,-0.3496,1.1468,10.9367
78169,-0.3639,1.1947,10.9630
78207,-0.4094,1.1420,10.9894
78245,-0.3663,1.1492,10.9846
78350,-0.3639,1.1636,11.0277
78389,-0.3735,1.1923,10.9702
78427,-0.4357,1.2091,10.9918
78465,-0.3615,1.1540,10.9271
78503,-0.3136,1.1875,10.9535
78541,-0.3519,1.2594,11.0301
78579,-0.4142,1.2378,11.0061
78685,-0.3950,1.2474,10.9200
78723,-0.3831,1.1277,11.0253
78761,-0.3711,1.1947,10.9678
78799,-0.4070,1.2043,10.9798
78837,-0.3376,1.1037,11.0588
78875,-0.3663,1.1540,11.0133
78913,-0.3807,1.2067,11.0061
79022,-0.4166,1.1253,10.9295
79061,-0.3424,1.2019,11.0085
79100,-0.3831,1.1923,11.0540
79138,-0.3807,1.1947,10.9607
79176,-0.3591,1.1133,10.9726
79214,-0.3472,1.1827,10.9966
79252,-0.3687,1.2282,10.9104
79361,-0.3831,1.2043,10.9918
79400,-0.3998,1.1109,10.9702
79438,-0.3472,1.1875,10.8960
79477,-0.3400,1.1636,10.9343
79515,-0.3687,1.2282,10.8769
79553,-0.3543,1.1349,10.9415
79591,-0.3950,1.1684,11.0038
79696,-0.3472,1.2067,10.9319
79735,-0.3591,1.1468,10.9750
79773,-0.3855,1.1372,11.0253
79811,-0.3519,1.1971,10.9391
79849,-0.3735,1.2019,10.9678
79888,-0.3304,1.1756,10.9846
79926,-0.3879,1.1756,10.9367
80021,-0.4166,1.2091,10.9415
80060,-0.3615,1.1971,10.9511
80098,-0.3711,1.1947,11.0014
80136,-0.4405,1.2043,10.9295
80174,-0.3448,1.1660,10.9942
80212,-0.3496,1.1660,10.9535
80250,-0.3807,1.1899,10.9966
80348,-0.3783,1.1612,10.9822
80387,-0.4214,1.1803,11.0229
80425,-0.3639,1.1779,10.9439
80463,-0.3903,1.1229,10.9630
80501,-0.3639,1.2043,10.9774
80539,-0.3352,1.1684,10.9343
80577,-0.3855,1.2091,10.9535
80615,-0.3519,1.1684,11.0109
80709,-0.4070,1.1492,10.9367
80748,-0.3065,1.1708,11.0014
80786,-0.3711,1.2115,10.9894
80824,-0.3543,1.1253,10.9654
80862,-0.3783,1.1540,11.0109
80900,-0.3903,1.2019,10.9247
80938,-0.3519,1.2139,10.9583
81034,-0.3855,1.2402,10.9391
81072,-0.3711,1.1588,10.9702
81110,-0.3496,1.1516,10.9439
81148,-0.3687,1.1396,10.9439
81186,-0.3280,1.1516,10.9223
81224,-0.3639,1.2210,10.9583
81262,-0.3663,1.1803,11.0253
81361,-0.3663,1.1899,11.0253
81400,-0.3280,1.1756,10.9247
81439,-0.3974,1.2115,10.9367
81477,-0.4286,1.2139,10.8769
81515,-0.3711,1.2306,10.9104
81553,-0.4070,1.1875,10.9822
81591,-0.4262,1.1851,10.9247
81699,-0.3735,1.1756,10.9463
81738,-0.4453,1.2378,10.9008
81776,-0.3496,1.1420,10.9678
81814,-0.3783,1.2258,10.9630
81853,-0.3615,1.2115,10.9487
81891,-0.3328,1.1756,10.9583
81929,-0.3519,1.1851,11.0038
82033,-0.3448,1.1492,10.9678
82072,-0.3950,1.1827,10.9678
82110,-0.3831,1.1779,10.9415
82148,-0.3519,1.1947,11.0181
82186,-0.4166,1.2091,10.9511
82225,-0.3831,1.1612,10.8912
82263,-0.3615,1.1372,10.9200
82372,-0.3567,1.1756,10.8984
82411,-0.3376,1.1612,11.0205
82449,-0.3615,1.1660,10.8936
82487,-0.3089,1.1923,10.9966
82525,-0.3400,1.2282,10.9846
82563,-0.3615,1.1851,11.0684
82602,-0.3424,1.1803,10.9128
82707,-0.3950,1.1732,10.9319
82746,-0.3472,1.2186,10.9846
82784,-0.2753,1.1732,10.9367
82822,-0.3879,1.1133,10.8936
82860,-0.3783,1.1157,11.0133
82898,-0.3903,1.1947,10.9726
82936,-0.3591,1.1636,10.9104
83042,-0.3472,1.1923,10.9918
83080,-0.3663,1.1923,10.9080
83118,-0.3328,1.1875,11.0349
83156,-0.3328,1.2067,10.9846
83194,-0.3543,1.1636,10.9726
83232,-0.3855,1.2019,10.9439
83270,-0.3998,1.1947,10.9343
83372,-0.3304,1.1708,11.0612
83411,-0.3352,1.2378,10.9894
83450,-0.3783,1.2234,11.0468
83488,-0.4094,1.1349,10.8984
83526,-0.3687,1.2019,10.9463
83564,-0.3496,1.1995,11.0109
83602,-0.2945,1.1803,11.0038
83704,-0.3328,1.1372,10.9726
83743,-0.3783,1.1588,10.9870
83781,-0.3160,1.1684,11.0085
83820,-0.3184,1.1540,10.9439
83858,-0.3519,1.1995,10.9654
83896,-0.4142,1.1492,10.9822
83934,-0.3184,1.1779,11.0301
84041,-0.3711,1.2043,10.9607
84080,-0.3543,1.0989,10.8769
84118,-0.3567,1.1660,10.9798
84156,-0.3950,1.1109,10.8864
84194,-0.4334,1.2019,10.9822
84233,-0.3567,1.1325,10.9511
84271,-0.3926,1.1923,10.9942
84374,-0.2993,1.1827,10.9654
84413,-0.3184,1.2139,10.9463
84451,-0.3256,1.1779,10.9152
84489,-0.3496,1.1947,10.9678
84527,-0.3591,1.1420,10.9990
84565,-0.4405,1.1588,10.9487
84604,-0.3974,1.1516,11.0253
84708,-0.3639,1.2019,11.0109
84747,-0.3304,1.1875,11.0229
84785,-0.3591,1.2450,10.9391
84823,-0.3496,1.1444,10.9367
84861,-0.3424,1.2258,10.9607
84899,-0.3711,1.1803,10.9176
84937,-0.3256,1.1875,10.9559
84975,-0.3998,1.1157,10.9678
85080,-0.3304,1.1971,10.9846
85119,-0.3567,1.1277,10.8888
85157,-0.3472,1.1468,10.9463
85195,-0.3615,1.2115,10.9726
85233,-0.4022,1.2139,10.9200
85271,-0.3496,1.1492,10.9654
85309,-0.3448,1.1779,10.9942
85415,-0.3519,1.1803,11.0373
85454,-0.3615,1.1612,10.9319
85492,-0.3567,1.1564,10.9343
85530,-0.3543,1.1588,10.9798
85568,-0.3376,1.1684,10.9391
85606,-0.3184,1.1372,10.8625
85644,-0.3328,1.1540,10.9846
85749,-0.3496,1.1923,10.9894
85788,-0.3615,1.2186,11.0708
85827,-0.3663,1.2019,10.8960
85865,-0.3232,1.1588,10.8673
85903,-0.3567,1.0774,10.9583
85941,-0.2993,1.1756,10.9918
85979,-0.3472,1.1420,10.9056
86087,-0.3663,1.1708,11.0732
86126,-0.3376,1.1851,10.9128
86164,-0.4357,1.1899,10.9894
86202,-0.3711,1.1923,11.0516
86241,-0.3543,1.1325,11.0014
86279,-0.3879,1.1564,10.9319
86317,-0.3783,1.1660,10.9463
86426,-0.3926,1.1684,11.0349
86465,-0.3448,1.1851,10.9774
86503,-0.3639,1.1875,10.8793
86541,-0.3663,1.1923,10.8936
86579,-0.3759,1.1420,10.9104
86618,-0.3543,1.1899,10.9535
86656,-0.4070,1.1684,10.9822
86764,-0.4238,1.1995,10.8936
86803,-0.3543,1.1995,10.8218
86841,-0.3998,1.2306,11.0109
86879,-0.3496,1.1636,10.9822
86917,-0.4214,1.1229,10.9487
86955,-0.3735,1.1732,10.9032
86994,-0.3041,1.1708,10.9128
87088,-0.3184,1.1564,10.8888
87127,-0.3687,1.1660,10.9391
87165,-0.4357,1.2091,11.0133
87203,-0.3639,1.1851,10.9607
87241,-0.3615,1.1995,11.0014
87279,-0.3472,1.1540,11.0133
87317,-0.3879,1.2139,10.8864
87423,-0.4214,1.1947,10.9487
87462,-0.3136,1.1947,10.9583
87500,-0.3448,1.1612,10.9583
87538,-0.3136,1.1851,10.9630
87576,-0.3711,1.2139,10.9032
87614,-0.4094,1.1899,10.9846
87652,-0.3352,1.2163,10.9439
87757,-0.3974,1.1851,10.9726
87796,-0.3974,1.2282,10.9654
87835,-0.3543,1.1205,10.9750
87873,-0.4166,1.2258,10.9511
87911,-0.3735,1.2258,10.9894
87949,-0.3543,1.1899,10.9247
87987,-0.4094,1.1612,10.9942
88093,-0.3519,1.2282,10.9487
88132,-0.4022,1.1708,10.8936
88170,-0.3903,1.1803,10.9822
88208,-0.3472,1.2330,11.0445
88247,-0.3448,1.1779,11.0301
88285,-0.3591,1.1157,10.9702
88323,-0.3472,1.1684,11.0492
88424,-0.3089,1.2378,10.9822
88463,-0.3543,1.2091,10.9678
88501,-0.3663,1.2043,10.9942
88539,-0.3472,1.1803,11.0468
88577,-0.3519,1.1684,10.9702
88616,-0.3855,1.1684,10.9056
88654,-0.4190,1.1588,10.9942
88760,-0.4429,1.2139,10.9630
88799,-0.3424,1.2067,10.9511
88837,-0.3041,1.2354,10.9152
88875,-0.3783,1.2163,10.9271
88913,-0.3950,1.2378,10.9583
88951,-0.3950,1.1037,11.0061
88990,-0.3136,1.2234,10.9678
89098,-0.3735,1.1564,10.9247
89137,-0.3615,1.1061,10.9271
89175,-0.3136,1.1875,10.9583
89213,-0.3208,1.1205,10.9535
89251,-0.3663,1.2019,10.9415
89289,-0.3400,1.1827,10.9104
89327,-0.3591,1.1923,11.0373
89365,-0.3639,1.1325,10.9319
89472,-0.4094,1.1325,10.9630
89511,-0.4262,1.1756,10.9678
89549,-0.3136,1.1301,10.9439
89587,-0.3855,1.1588,10.9104
89625,-0.4022,1.1684,10.9295
89663,-0.3998,1.2019,10.9439
89701,-0.3184,1.1588,11.0157
89805,-0.4046,1.1396,10.9463
89844,-0.3352,1.1899,10.9654
89882,-0.4022,1.1947,10.9942
89920,-0.3543,1.1636,10.9415
89958,-0.4142,1.1779,10.9870
89996,-0.3567,1.1157,10.8984
90034,-0.2777,1.2067,10.9200
90138,-0.3903,1.1612,10.9295
90177,-0.3831,1.2043,10.9463
90216,-0.3639,1.1492,10.9870
90254,-0.3711,1.2330,10.9630
90292,-0.4262,1.1588,11.0516
90330,-0.3591,1.1085,10.9032
90368,-0.3711,1.1660,10.9535
90472,-0.3687,1.2258,11.0085
90511,-0.3280,1.1947,10.9319
90549,-0.3735,1.1708,10.9726
90587,-0.3926,1.1516,10.9942
90626,-0.3831,1.1779,10.9870
90664,-0.3687,1.1492,10.9846
90702,-0.4166,1.1756,10.9080
90809,-0.3567,1.1540,10.9128
90848,-0.3759,1.1923,11.0205
90886,-0.4046,1.1827,11.0373
90924,-0.3831,1.1875,10.9247
90962,-0.4070,1.1588,10.8601
91001,-0.3232,1.1756,10.9367
91039,-0.3472,1.2498,10.9702
91144,-0.3017,1.1684,11.0899
91183,-0.3639,1.2163,10.9080
91221,-0.3352,1.2067,10.9319
91259,-0.3759,1.1540,10.9798
91297,-0.3472,1.1492,10.9702
91335,-0.3424,1.2163,11.0109
91374,-0.3926,1.1564,10.9535
91479,-0.3759,1.1827,10.9391
91518,-0.3783,0.8428,10.6518
91556,-0.4932,1.8651,8.4013
91594,-0.4597,1.0606,11.4994
91632,-0.2251,1.1947,10.9726
91670,-0.3112,1.1492,10.8218
91708,-0.3232,1.0965,11.0181
91815,-0.2993,1.1923,10.9008
91854,-0.3591,1.1636,10.9798
91892,-0.3567,1.2139,11.0205
91930,-0.3783,1.2139,10.9511
91968,-0.3759,1.2163,10.9008
92006,-0.3639,1.1492,11.0205
92044,-0.3998,1.1588,11.0277
92149,-0.3591,1.1851,10.9487
92188,-0.3926,1.2139,10.9918
92227,-0.3807,1.1947,10.9583
92265,-0.3352,1.2091,10.9990
92303,-0.3328,1.2258,10.9487
92341,-0.3543,1.1875,10.9511
92379,-0.3663,1.1396,11.0061
92476,-0.3783,1.2881,10.9966
92515,-0.4094,1.1540,10.9104
92553,-0.3065,1.1372,10.9200
92591,-0.3639,1.1899,10.9295
92630,-0.3807,1.2163,10.8984
92668,-0.3496,1.1636,10.9247
92706,-0.4453,1.2091,10.8816
92812,-0.3687,1.1851,10.9463
92851,-0.3831,1.2378,11.0085
92889,-0.3496,1.2067,10.9032
92927,-0.3831,1.1899,10.8936
92965,-0.3543,1.2115,10.9104
93004,-0.3783,1.1947,10.9774
93042,-0.3256,1.2306,10.8840
93151,-0.3807,1.1708,11.0109
93190,-0.3280,1.1444,10.9654
93228,-0.3424,1.2067,10.9128
93266,-0.3496,1.1779,10.9798
93304,-0.3711,1.1923,10.9750
93342,-0.3735,1.1947,10.9942
93381,-0.3639,1.1612,10.9080
93483,-0.3376,1.1516,10.9942
93522,-0.3089,1.1660,11.0061
93560,-0.3472,1.1660,10.9870
93598,-0.3783,1.1588,10.9822
93636,-0.3663,1.1612,10.9846
93674,-0.3160,1.1349,10.9295
93712,-0.3974,1.1995,10.9990
93750,-0.3232,1.1875,10.9128
93855,-0.3903,1.1564,10.9846
93894,-0.2921,1.2067,10.9726
93932,-0.3974,1.2115,10.9271
93970,-0.3855,1.2043,10.9702
94008,-0.3448,1.1708,10.8481
94046,-0.3711,1.1827,10.9343
94084,-0.2825,1.2163,10.8457
94191,-0.3783,1.1660,10.9152
94230,-0.3065,1.2186,10.9630
94268,-0.3879,1.2210,11.0014
94306,-0.3280,1.1851,10.8864
94344,-0.3376,1.2043,11.0349
94382,-0.3304,1.1732,10.9990
94420,-0.3879,1.1253,10.9630
94527,-0.3974,1.1564,10.9966
94566,-0.3831,1.1827,11.0157
94605,-0.3687,1.2043,10.9894
94643,-0.3615,1.1756,10.8697
94681,-0.3065,1.1708,11.0014
94719,-0.3615,1.1229,11.0133
94829,-0.3998,1.2522,11.0061
94868,-0.3831,1.1396,10.9702
94906,-0.3807,1.1732,11.0109
94944,-0.4118,1.1971,11.0612
94982,-0.3352,1.1899,10.9511
95021,-0.3543,1.1827,10.9535
95131,-0.3112,1.1947,10.9774
95170,-0.3472,1.2378,10.9654
95208,-0.3424,1.2330,10.9607
95246,-0.3160,1.1516,10.9343
95284,-0.3184,1.2091,11.0684
95322,-0.3807,1.1732,10.9487
95431,-0.3663,1.2067,10.9774
95470,-0.3615,1.2091,10.9367
95508,-0.3831,1.1492,11.0205
95546,-0.3496,1.1732,10.9032
95584,-0.3112,1.1420,10.9822
95622,-0.3543,1.1684,10.9487
95730,-0.3926,1.1444,10.8888
95769,-0.3567,1.2330,10.9583
95807,-0.4166,1.1756,11.0109
95845,-0.3352,1.1492,10.9583
95884,-0.3879,1.1971,11.0061
95922,-0.3424,1.2043,11.0133
96027,-0.3591,1.1995,10.9702
96066,-0.3783,1.1133,10.9056
96104,-0.3543,1.2258,10.9104
96142,-0.3184,1.2139,10.8601
96180,-0.4190,1.1420,10.8888
96218,-0.3855,1.1947,10.9487
96257,-0.3136,1.2067,10.9128
96366,-0.3184,1.1971,10.9415
96405,-0.4142,1.2091,10.9415
96443,-0.3687,1.2354,10.9678
96481,-0.4022,1.1732,10.9200
96519,-0.3496,1.2426,11.0157
96557,-0.3591,1.1564,10.9415
96595,-0.3041,1.1995,10.9822
96704,-0.3783,1.1588,11.0492
96743,-0.3879,1.1875,10.9152
96781,-0.3184,1.2019,10.9726
96819,-0.4094,1.2354,10.9559
96857,-0.3615,1.2306,10.9487
96895,-0.3855,1.2091,10.9894
97005,-0.3280,1.2163,11.0421
97044,-0.3926,1.1468,10.9846
97082,-0.3496,1.1971,10.9008
97121,-0.3711,1.1372,10.9295
97159,-0.3807,1.1396,10.8816
97197,-0.3567,1.1396,10.9798
97307,-0.3424,1.1468,11.0014
97346,-0.3304,1.2019,10.9870
97384,-0.3903,1.1756,10.9463
97422,-0.3783,1.1205,11.0133
97460,-0.3974,1.1923,10.9654
97499,-0.3424,1.2306,10.9152
97600,-0.3879,1.1923,11.0277
97639,-0.3687,1.1971,10.9726
97677,-0.3328,1.1827,10.8840
97715,-0.4118,1.1564,10.9702
97753,-0.3519,1.1732,10.9415
97791,-0.3448,1.2210,10.9583
97901,-0.3496,1.1756,10.9535
97940,-0.2682,1.1923,10.9223
97978,-0.3615,1.1684,11.0157
98016,-0.3496,1.1325,10.9056
98054,-0.3950,1.1827,11.0061
98092,-0.3424,1.1779,11.0109
98130,-0.3831,1.1875,10.8362
98239,-0.3615,1.1492,10.9535
98278,-0.3591,1.2186,11.0038
98316,-0.4238,1.1516,10.8769
98355,-0.3663,1.1995,11.0157
98393,-0.3184,1.1875,11.0133
98431,-0.2969,1.1636,10.9535
98541,-0.3424,1.2498,10.9846
98580,-0.3807,1.1851,10.9607
98618,-0.3663,1.2186,10.9798
98656,-0.3735,1.1684,10.9822
98694,-0.3807,1.1803,10.9152
98733,-0.3879,1.2354,11.0205
98843,-0.3615,1.2186,10.9846
98882,-0.3424,1.2043,11.0133
98920,-0.3783,1.2067,10.9415
98958,-0.3663,1.1971,10.9966
98996,-0.4046,1.1851,10.9487
99034,-0.2825,1.1995,10.9630
99073,-0.3591,1.1923,10.9391
99179,-0.3376,1.2306,10.9176
99218,-0.3639,1.1612,10.9463
99256,-0.3041,1.1827,10.9271
99294,-0.3879,1.1636,11.0229
99332,-0.3639,1.1540,10.9678
99370,-0.3783,1.2378,11.0038
99479,-0.3807,1.1420,10.9846
99518,-0.3567,1.1492,10.9870
99556,-0.3496,1.2019,11.0061
99595,-0.3591,1.1851,10.9343
99633,-0.3472,1.1875,10.9008
99671,-0.3136,1.2474,10.9607
99774,-0.3472,1.1564,11.0061
99813,-0.3400,1.2498,10.7595
99851,-0.3567,1.2665,10.7931
99889,-0.4262,1.2163,11.0492
99927,-0.3663,1.1612,10.9056
99966,-0.3376,1.1732,10.9535
100004,-0.3711,1.1851,10.9630
100115,-0.3807,1.1947,10.9200
100154,-0.3687,1.1612,10.9702
100192,-0.4214,1.1923,11.0947
100230,-0.4166,1.5490,10.3310
100268,-0.3519,1.2282,10.8338
100306,-0.2777,1.3384,10.4052
100415,-0.3256,1.1875,10.9678
100454,-0.3687,1.1684,10.9367
100492,-0.3783,1.2210,10.9607
100530,-0.3687,1.1564,10.9391
100568,-0.3759,1.2330,10.9559
100606,-0.3926,1.1779,11.0109
100714,-0.3735,1.1253,10.9367
100753,-0.3639,1.1636,10.9870
100792,-0.3735,1.1947,11.0181
100830,-0.3639,1.1229,11.0014
100868,-0.3879,1.1444,10.9870
100906,-0.0048,0.9792,10.8122
101018,-0.2705,1.5874,9.6845
101057,-0.2849,1.3647,10.5489
101095,-0.1245,1.1875,10.8002
101133,-0.0311,1.0127,10.9223
101171,-0.5076,1.4413,10.4866
101210,-0.2777,1.5490,9.9407
101318,-0.3496,1.2857,11.1043
101357,-0.2466,1.3288,10.9200
101396,-0.3089,1.4533,10.5632
101434,-0.2729,1.3431,10.9774
101472,-0.3232,1.3408,11.0564
101510,-0.3304,1.3408,10.9295
101548,-0.2993,1.3719,10.9678
101658,-0.3280,1.3551,10.9894
101697,-0.2562,1.3312,10.8912
101735,-0.4190,1.3384,10.9104
101773,-0.3783,1.3384,10.8936
101811,-0.3017,1.3551,10.9152
101849,-0.2969,1.3910,10.9223
101887,-0.3089,1.3240,10.8457
101998,-0.3208,1.3838,10.9008
102037,-0.3615,1.3527,10.8912
102075,-0.2825,1.3743,10.9630
102113,-0.3017,1.3024,11.0325
102151,-0.3208,1.4174,10.9487
102189,-0.3304,1.4269,10.9966
102299,-0.2562,1.3886,10.9511
102338,-0.3089,1.3264,10.8936
102376,-0.3472,1.3312,10.9223
102415,-0.3089,1.3647,10.9008
102453,-0.3136,1.3527,10.9535
102491,-0.3232,1.3719,10.9463
102592,-0.2993,1.3695,11.0038
102631,-0.3496,1.2881,10.8505
102669,-0.3112,1.3527,10.9176
102707,-0.3400,1.3886,10.9439
102745,-0.2753,1.3503,10.8984
102784,-0.3160,1.3455,10.8960
102897,-0.2562,1.3767,10.9104
102936,-0.2179,1.3479,10.8793
102974,-0.3519,1.3503,10.9511
103012,-0.2753,1.3455,10.9247
103050,-0.3184,1.3503,11.0277
103088,-0.3232,1.3479,10.9870
103197,-0.2993,1.3551,10.8481
103236,-0.3280,1.3384,10.9630
103274,-0.2753,1.3431,11.0229
103312,-0.3065,1.3695,10.9319
103350,-0.2729,1.3479,10.9247
103388,-0.3256,1.3767,10.9319
103426,-0.3041,1.3479,10.9415
103536,-0.2993,1.3719,10.8697
103575,-0.3448,1.3623,10.9559
103614,-0.2801,1.3431,10.9918
103652,-0.3328,1.3910,10.9583
103690,-0.3112,1.3575,10.8912
103728,-0.3184,1.3192,10.9487
103841,-0.3232,1.3551,11.0301
103880,-0.2921,1.3072,10.9128
103918,-0.3208,1.3527,10.8386
103956,-0.3089,1.3384,10.8840
103995,-0.3591,1.3599,10.9343
104033,-0.3663,1.3431,10.9487
104143,-0.3328,1.3767,10.9176
104182,-0.3352,1.3886,10.9032
104220,-0.3304,1.3527,10.8840
104258,-0.2849,1.4102,10.9104
104296,-0.3184,1.3815,10.8769
104334,-0.3184,1.3455,10.9630
104440,-0.3112,1.4365,10.9702
104479,-0.2969,1.3384,10.9056
104517,-0.3184,1.3312,11.0085
104556,-0.2897,1.3096,10.8793
104594,-0.3065,1.3934,10.9415
104632,-0.2897,1.3503,10.9511
104670,-0.3304,1.3312,10.9990
104778,-0.2825,1.3408,10.9056
104817,-0.3017,1.4174,10.9223
104855,-0.3017,1.3527,10.9415
104893,-0.3041,1.3647,10.9894
104931,-0.3232,1.3384,10.9247
104969,-0.2969,1.3479,10.9990
105007,-0.3352,1.4126,11.0253
105117,-0.2945,1.3791,10.8769
105156,-0.2969,1.4102,10.9032
105194,-0.2490,1.3695,10.9822
105233,-0.3735,1.3815,10.9583
105271,-0.2993,1.4006,10.8912
105309,-0.2969,1.3910,10.9559
105420,-0.2562,1.3838,10.9583
105459,-0.2705,1.3767,10.9439
105497,-0.3041,1.3623,10.9415
105535,-0.3065,1.3958,10.9391
105573,-0.3448,1.3767,11.0061
105612,-0.3184,1.3312,10.9056
105723,-0.2777,1.3431,10.9200
105762,-0.2658,1.3695,11.0756
105801,-0.3448,1.3767,10.9415
105839,-0.2562,1.3623,10.9630
105877,-0.2658,1.3599,10.8912
105915,-0.3232,1.3767,10.9678
106024,-0.2825,1.3575,10.9535
106063,-0.3352,1.3982,10.9487
106102,-0.3639,1.3623,10.9128
106140,-0.2514,1.4341,10.9798
106178,-0.2969,1.3336,10.8673
106216,-0.3448,1.3838,10.8888
106328,-0.2801,1.3886,10.9798
106367,-0.3232,1.3767,10.9032
106406,-0.3663,1.3838,10.9295
106445,-0.3376,1.3862,10.9870
106483,-0.3496,1.3599,10.9918
106521,-0.3496,1.3671,11.0109
106627,-0.2418,1.4126,10.9583
106666,-0.3328,1.3503,10.8936
106705,-0.2682,1.3527,10.9702
106744,-0.3759,1.2905,11.0133
106783,-0.3304,1.3240,10.9487
106822,-0.3280,1.3815,10.9990
106860,-0.3376,1.3384,10.8936
106970,-0.3424,1.3910,10.9726
107009,-0.3472,1.3623,10.8721
107048,-0.3041,1.3384,10.9774
107086,-0.3232,1.3503,10.9391
107124,-0.2921,1.3767,10.9080
107163,-0.2945,1.3647,10.9367
107273,-0.2897,1.3192,10.9415
107312,-0.3400,1.3815,10.9271
107351,-0.3136,1.3958,10.9415
107389,-0.3208,1.3336,10.9247
107427,-0.3543,1.3527,10.9128
107466,-0.3543,1.3695,10.9200
107504,-0.2945,1.3527,10.9056
107606,-0.2849,1.4006,10.9176
107645,-0.3328,1.3503,10.9391
107684,-0.2945,1.3455,10.8840
107722,-0.3184,1.4293,10.8721
107760,-0.2777,1.3886,10.9032
107798,-0.3352,1.3312,10.9391
107911,-0.3136,1.3695,10.9367
107950,-0.2873,1.3192,10.8936
107989,-0.3448,1.3647,10.9607
108028,-0.2945,1.3240,11.0301
108067,-0.3639,1.3958,10.8769
108105,-0.4070,1.4054,10.9535
108209,-0.3304,1.3575,10.9319
108248,-0.2705,1.3623,10.8721
108287,-0.3639,1.3719,10.9367
108325,-0.2873,1.3312,10.9128
108363,-0.3280,1.3479,10.9750
108402,-0.3352,1.3647,10.9487
108440,-0.3017,1.3527,10.9798
108549,-0.3065,1.3575,11.0229
108588,-0.2753,1.4030,10.9104
108627,-0.3112,1.2977,10.9511
108665,-0.3280,1.4054,10.9966
108703,-0.3208,1.3455,10.9798
108741,-0.3783,1.3695,10.9271
108851,-0.3208,1.3503,10.9032
108890,-0.2897,1.3743,10.9391
108929,-0.3184,1.4006,10.9104
108968,-0.2682,1.3934,10.9511
109006,-0.2801,1.3695,10.8960
109044,-0.3232,1.3575,10.9200
109157,-0.2801,1.3503,10.8098
109196,-0.3496,1.3384,10.8936
109235,-0.2849,1.3862,10.9128
109274,-0.3519,1.3575,11.0325
109313,-0.3328,1.3408,10.9511
109352,-0.2945,1.3671,10.9200
109462,-0.3041,1.3647,10.9008
109501,-0.3136,1.3551,10.8793
109540,-0.3711,1.4150,10.8338
109579,-0.3136,1.3479,11.0421
109618,-0.3304,1.3647,10.8505
109657,-0.3496,1.4293,10.8721
109763,-0.3280,1.3527,10.9056
109802,-0.3304,1.3384,10.8888
109841,-0.3232,1.3743,10.9271
109880,-0.3328,1.3815,10.9439
109919,-0.3759,1.3910,10.9295
109958,-0.2993,1.3599,10.9439
109997,-0.2753,1.3838,10.9271
110104,-0.3376,1.4078,10.9295
110143,-0.3328,1.3815,10.8769
110182,-0.3831,1.3791,10.9702
110221,-0.2753,1.3503,10.9678
110260,-0.3448,1.3479,10.9511
110299,-0.3208,1.3910,10.8290
110338,-0.2897,1.3791,10.8601
110447,-0.3352,1.3982,11.0038
110486,-0.3041,1.3862,10.9223
110525,-0.3136,1.3312,10.9152
110563,-0.2873,1.3862,10.8625
110602,-0.3496,1.3647,10.9487
110641,-0.3472,1.3168,10.9295
110752,-0.2729,1.3647,10.9152
110791,-0.2993,1.3288,10.9247
110830,-0.3496,1.3336,10.9511
110869,-0.3136,1.3719,10.8793
110908,-0.3112,1.3479,11.0133
110947,-0.3160,1.4078,10.9535
111056,-0.2729,1.4078,10.9391
111095,-0.3232,1.3312,10.9200
111134,-0.2873,1.3862,10.9319
111173,-0.3256,1.4102,10.8912
111212,-0.2897,1.3910,10.8697
111251,-0.3184,1.3910,10.8673
111363,-0.3328,1.3958,10.9918
111402,-0.2897,1.3455,10.9439
111441,-0.2370,1.3719,10.9750
111480,-0.3112,1.3503,10.9247
111519,-0.2634,1.3934,10.8649
111558,-0.2921,1.4222,10.9630
111668,-0.2394,1.3072,10.9463
111707,-0.2849,1.3695,10.9607
111746,-0.3448,1.3838,10.8553
111785,-0.3089,1.3599,10.9726
111824,-0.2945,1.3503,10.8984
111863,-0.3041,1.4102,10.9439
111969,-0.3376,1.3743,10.9008
112008,-0.3065,1.3695,10.9870
112047,-0.2849,1.3767,10.8505
112086,-0.2873,1.4054,10.9583
112125,-0.3136,1.4437,11.0061
112164,-0.3567,1.3695,10.8697
112203,-0.2969,1.3503,10.9678
112313,-0.3663,1.3862,10.9152
112352,-0.2562,1.3910,11.0468
112391,-0.3232,1.3695,10.9559
112430,-0.3304,1.4054,10.9798
112469,-0.3089,1.3408,10.8721
112508,-0.3256,1.3791,10.9032
112606,-0.2969,1.4078,10.9463
112645,-0.2801,1.3647,11.0445
112684,-0.2682,1.3647,10.8457
112723,-0.2825,1.3862,10.9822
112762,-0.2801,1.3623,10.9750
112801,-0.2322,1.3695,10.8721
112912,-0.3950,1.3312,11.0205
112951,-0.3352,1.3886,10.9846
112990,-0.2705,1.3934,10.9559
113029,-0.3496,1.3958,10.9367
113068,-0.2777,1.3551,10.9032
113107,-0.3280,1.3048,10.9535
113146,-0.3783,1.3479,10.9966
113259,-0.3041,1.3982,10.9487
113298,-0.3256,1.3623,10.8816
113337,-0.3256,1.3551,11.0085
113376,-0.2370,1.3815,10.9846
113415,-0.2993,1.3623,10.9918
113454,-0.3711,1.3838,10.9559
113563,-0.3041,1.3527,10.9367
113602,-0.2538,1.4365,10.9367
113641,-0.2825,1.4078,10.9056
113680,-0.3184,1.3982,10.9990
113719,-0.3280,1.3838,10.9750
113758,-0.2873,1.3767,10.9702
113797,-0.3328,1.3647,11.0038
113910,-0.2777,1.3767,10.9750
113949,-0.3089,1.3791,10.9678
113988,-0.3472,1.4030,10.9702
114027,-0.2921,1.3695,10.8577
114066,-0.2945,1.4126,10.9319
114105,-0.3591,1.3838,10.9678
114214,-0.3376,1.3671,10.9702
114253,-0.3089,1.3934,10.9822
114292,-0.3328,1.4078,10.8745
114331,-0.3280,1.3695,10.8984
114370,-0.3304,1.3408,10.9678
114409,-0.3424,1.3384,10.9080
114523,-0.3017,1.3886,10.9559
114562,-0.3352,1.3216,10.9822
114601,-0.3831,1.3527,10.9798
114640,-0.2682,1.3623,10.9128
114679,-0.3711,1.3431,10.9367
114718,-0.2538,1.3168,10.9678
114831,-0.2969,1.3886,10.9008
114871,-0.3496,1.3838,10.9032
114910,-0.3232,1.3048,10.9104
114949,-0.3328,1.3599,10.9511
114988,-0.3089,1.3934,10.8673
115027,-0.3352,1.3024,10.8505
115136,-0.3280,1.3599,10.9247
115176,-0.3448,1.3551,10.8721
115215,-0.3208,1.3551,10.9487
115254,-0.3232,1.3551,10.8457
115293,-0.2705,1.3719,10.8553
115332,-0.3472,1.3719,10.9583
115441,-0.2993,1.3527,10.8936
115481,-0.3136,1.3575,11.0085
115520,-0.3089,1.3791,10.8936
115559,-0.2682,1.3838,10.9846
115598,-0.3256,1.4317,10.9702
115637,-0.3424,1.3647,10.9918
115677,-0.3424,1.4006,10.8984
115782,-0.3065,1.3120,10.9247
115822,-0.2945,1.3647,10.9487
115861,-0.3687,1.3479,10.8745
115900,-0.2394,1.2881,10.9080
115939,-0.2969,1.3862,10.9535
115978,-0.3711,1.3958,10.9343
116017,-0.2897,1.3958,10.9367
116127,-0.2729,1.3695,10.9487
116166,-0.3065,1.4341,10.9008
116205,-0.3160,1.3910,10.9607
116244,-0.2729,1.3719,10.8529
116283,-0.2993,1.3360,11.0061
116322,-0.3591,1.4078,10.9152
116431,-0.3017,1.3312,10.9535
116471,-0.3591,1.3767,10.9942
116510,-0.2897,1.3647,10.9200
116549,-0.2705,1.3838,10.9271
116588,-0.2346,1.3982,10.9223
116627,-0.3328,1.3958,10.8290
116737,-0.2849,1.3599,10.9822
116776,-0.3041,1.4006,11.0061
116815,-0.2586,1.3671,10.9223
116854,-0.2514,1.3719,10.9463
116893,-0.3400,1.3862,10.9415
116932,-0.2849,1.3192,10.9487
117045,-0.2993,1.3791,10.9942
117084,-0.2897,1.3503,10.9223
117123,-0.2921,1.3743,10.9654
117162,-0.3448,1.4269,10.9367
117201,-0.3065,1.4078,10.9008
117240,-0.2538,1.3599,10.8769
117351,-0.2682,1.3958,10.8266
117390,-0.2825,1.4006,10.9056
117429,-0.3400,1.3743,11.0828
117468,-0.3017,1.3360,10.8745
117507,-0.2897,1.3719,11.0085
117546,-0.2825,1.3575,10.9056
117641,-0.3376,1.3838,10.8433
117681,-0.2849,1.4030,10.9463
117720,-0.3304,1.3240,10.8936
117759,-0.2705,1.3791,10.8912
117799,-0.3256,1.4341,10.9822
117838,-0.2442,1.3886,10.9152
117877,-0.3136,1.3958,10.9223
117990,-0.3089,1.3695,10.9487
118030,-0.3879,1.4054,10.9080
118069,-0.2801,1.3575,10.9056
118108,-0.2610,1.3767,10.8960
118150,-0.2921,1.3886,10.9559
118260,-0.3448,1.3647,10.9200
118298,-0.3232,1.4150,10.9343
118336,-0.3519,1.3527,10.8816
118374,-0.3112,1.3479,10.8960
118412,-0.3089,1.3312,11.0109
118450,-0.2969,1.3503,11.0061
118487,-0.2993,1.3384,10.8960
118597,-0.3472,1.2929,10.8984
118635,-0.3519,1.3575,10.9008
118673,-0.2753,1.3599,10.8481
118711,-0.2682,1.4389,10.9032
118749,-0.2873,1.4030,10.8122
118787,-0.2945,1.3910,10.9176
118896,-0.2777,1.4150,10.9511
118934,-0.2969,1.4126,10.8864
118972,-0.2825,1.3360,10.9343
119010,-0.3184,1.3288,10.9678
119048,-0.2921,1.3910,10.8529
119086,-0.2777,1.3431,10.8984
119195,-0.3472,1.3719,10.9918
119233,-0.3280,1.3479,10.8529
119271,-0.2897,1.3910,10.9439
119309,-0.2921,1.3886,10.9271
119347,-0.2777,1.3862,10.8840
119385,-0.3328,1.3455,10.9942
119493,-0.2993,1.3886,10.9200
119531,-0.3472,1.3767,10.8433
119569,-0.3519,1.3503,11.0085
119607,-0.3400,1.4413,10.9247
119645,-0.3184,1.3719,10.9535
119683,-0.3352,1.3599,10.8457
119789,-0.2801,1.3599,10.9104
119827,-0.3184,1.3791,10.9774
119865,-0.3184,1.3647,10.9463
119903,-0.3136,1.3240,10.9750
119941,-0.3591,1.3216,10.9319
119979,-0.3041,1.3360,10.9271
120017,-0.2945,1.4413,10.9056
120126,-0.2801,1.4389,10.8936
120164,-0.3256,1.4174,11.0301
120202,-0.2658,1.3767,10.8793
120240,-0.2825,1.3695,10.8721
120278,-0.3041,1.4269,10.8481
120316,-0.3065,1.3719,10.8769
120425,-0.3280,1.3791,10.9056
120464,-0.3256,1.3384,10.9247
120502,-0.3376,1.3958,10.9343
120540,-0.3639,1.3503,11.0085
120578,-0.2993,1.3815,10.9798
120616,-0.2897,1.3408,10.8793
120721,-0.2969,1.3815,10.9319
120759,-0.3591,1.4054,10.9630
120797,-0.3041,1.4317,10.9056
120835,-0.3065,1.3671,10.9678
120873,-0.3256,1.3503,10.9487
120911,-0.2658,1.3695,10.9678
121023,-0.2849,1.4317,10.8433
121062,-0.3280,1.4341,10.9822
121100,-0.2945,1.4102,10.8721
121138,-0.3184,1.3815,10.9511
121176,-0.3352,1.3958,10.9104
121214,-0.3136,1.3910,10.9990
121252,-0.3352,1.3192,10.9630
121361,-0.3089,1.3838,10.9918
121399,-0.2849,1.3288,10.9846
121437,-0.3065,1.3599,10.9966
121475,-0.2298,1.3455,10.9104
121513,-0.2801,1.3982,10.9295
121551,-0.2729,1.3910,10.8745
121656,-0.2921,1.4078,10.8362
121695,-0.2753,1.3575,10.9630
121733,-0.3208,1.3360,10.9104
121771,-0.3232,1.3096,11.0277
121809,-0.3017,1.4485,10.9846
121847,-0.3136,1.3743,10.8936
121885,-0.3807,1.4078,10.9104
121993,-0.3280,1.4198,10.9152
122031,-0.3017,1.3695,10.9678
122069,-0.2753,1.4150,10.9535
122107,-0.3376,1.3431,10.9702
122145,-0.2682,1.4222,10.9463
122183,-0.2801,1.4246,10.9678
122292,-0.3639,1.3312,10.9128
122331,-0.2849,1.3120,10.9271
122369,-0.3256,1.4174,10.8984
122407,-0.3041,1.3647,10.9343
122445,-0.3017,1.3695,10.9846
122483,-0.2610,1.3934,10.9559
122581,-0.2634,1.3312,10.9439
122619,-0.2753,1.3623,10.9247
122657,-0.2251,1.3743,11.0014
122695,-0.2969,1.3503,10.9966
122733,-0.3041,1.4078,10.8649
122771,-0.2729,1.3527,10.8912
122879,-0.2227,1.3791,10.9367
122918,-0.3089,1.4054,10.9511
122956,-0.3017,1.3767,10.8960
122994,-0.2945,1.3791,10.9415
123032,-0.3448,1.3838,10.8984
123070,-0.2179,1.3623,10.9918
123181,-0.3160,1.3288,10.9200
123220,-0.3879,1.3982,10.9822
123258,-0.3089,1.3575,10.8697
123296,-0.2993,1.3455,10.9726
123334,-0.2801,1.3288,10.9702
123373,-0.2753,1.3695,10.9654
123482,-0.2993,1.3767,10.9415
123521,-0.3304,1.3144,10.9295
123559,-0.3280,1.3791,10.9176
123597,-0.3256,1.3671,10.9798
123635,-0.2897,1.3264,10.9463
123673,-0.2801,1.3575,10.9630
123711,-0.3304,1.4222,10.8840
123820,-0.3543,1.3599,11.0205
123859,-0.2658,1.3695,10.9678
123897,-0.2993,1.3982,10.9415
123935,-0.3543,1.3695,10.9990
123973,-0.2897,1.3264,10.8721
124011,-0.3136,1.3336,10.9319
124049,-0.3280,1.3743,10.9630
124159,-0.2993,1.3886,10.9247
124197,-0.3424,1.3982,10.8888
124235,-0.3089,1.3479,10.8864
124273,-0.3687,1.3647,11.0181
124311,-0.3519,1.3503,10.9966
124349,-0.3136,1.3575,10.9080
124457,-0.2753,1.3479,11.0085
124496,-0.3496,1.3360,11.0061
124534,-0.2993,1.3958,10.9511
124573,-0.3663,1.3982,10.9918
124611,-0.3208,1.3575,10.9176
124649,-0.3041,1.3408,10.9463
124761,-0.3950,1.3575,10.8529
124799,-0.3089,1.3791,10.9630
124837,-0.3496,1.4030,10.8338
124875,-0.3136,1.4030,10.9223
124913,-0.2873,1.3719,11.0181
124951,-0.2777,1.4269,10.9487
125059,-0.3089,1.4078,10.9630
125098,-0.3328,1.3838,10.9008
125136,-0.2969,1.3527,10.9032
125174,-0.3304,1.3312,10.8721
125212,-0.2921,1.3551,10.9726
125250,-0.3280,1.3647,10.9654
125359,-0.3352,1.4078,10.9200
125397,-0.3304,1.4557,11.0229
125435,-0.3400,1.3838,10.8433
125473,-0.3208,1.3431,10.9128
125511,-0.2705,1.3671,10.8673
125549,-0.3089,1.4365,10.9630
125587,-0.2705,1.3455,10.8816
125699,-0.3208,1.3144,10.8936
125738,-0.3112,1.4006,10.9415
125776,-0.2993,1.3791,10.8936
125814,-0.2969,1.3838,10.8625
125852,-0.3160,1.3575,10.8984
125890,-0.3328,1.3599,10.9152
125997,-0.3136,1.3743,10.8649
126036,-0.3807,1.4030,10.9152
126074,-0.3112,1.4174,10.9798
126112,-0.3089,1.3623,11.0133
126150,-0.3376,1.3886,10.8194
126189,-0.3328,1.4174,10.9319
126297,-0.3328,1.3743,10.9894
126336,-0.2658,1.3815,10.9343
126374,-0.2873,1.4174,10.9367
126412,-0.3304,1.3575,10.9654
126450,-0.2969,1.3671,10.9223
126488,-0.2729,1.3599,10.8984
126526,-0.3615,1.3623,10.9439
126635,-0.3328,1.3719,10.9463
126674,-0.2945,1.3671,10.9080
126712,-0.2729,1.3767,10.9990
126750,-0.3304,1.3695,10.9678
126788,-0.2873,1.3240,10.8553
126826,-0.2610,1.3288,10.9822
126938,-0.2993,1.3455,10.8912
126977,-0.3352,1.3838,10.8936
127016,-0.2921,1.3479,11.0085
127054,-0.3280,1.4341,10.8529
127092,-0.3112,1.4174,10.9056
127130,-0.2825,1.3815,10.8888
127238,-0.2969,1.3767,10.9295
127277,-0.2801,1.3360,10.9654
127315,-0.2873,1.3838,10.9319
127353,-0.2993,1.3384,10.8601
127392,-0.3280,1.3791,10.8338
127430,-0.3136,1.3503,10.9319
127527,-0.3352,1.4198,10.9630
127566,-0.2634,1.3096,10.8601
127604,-0.3208,1.3623,10.9176
127642,-0.3136,1.3767,10.9439
127680,-0.3280,1.3886,10.8816
127719,-0.3112,1.3575,10.8625
127827,-0.2801,1.3408,10.8840
127866,-0.3783,1.3862,10.8625
127904,-0.3711,1.4246,10.8601
127942,-0.3424,1.3479,10.8936
127980,-0.2897,1.3886,10.8936
128018,-0.3328,1.3647,10.9319
128056,-0.2179,1.3671,10.9654
128166,-0.2969,1.3647,10.9056
128204,-0.3352,1.3910,10.9295
128242,-0.3208,1.3886,10.9750
128280,-0.3352,1.3719,11.0229
128318,-0.3543,1.3958,10.9367
128356,-0.2993,1.3934,10.8433
128465,-0.2921,1.3743,10.9798
128504,-0.3472,1.3168,11.0325
128542,-0.3424,1.4054,10.8721
128581,-0.3424,1.4461,10.9415
128619,-0.2921,1.3838,10.9439
128657,-0.3352,1.3647,10.8840
128765,-0.2993,1.4078,11.0181
128804,-0.3280,1.3479,10.9200
128842,-0.3352,1.3767,10.8984
128880,-0.3112,1.3527,10.8769
128918,-0.2466,1.3719,10.9391
128957,-0.2945,1.3719,10.8625
129065,-0.3160,1.3336,10.9750
129104,-0.4070,1.4126,10.9319
129142,-0.3591,1.3767,10.8673
129180,-0.2634,1.3599,10.9367
129218,-0.3376,1.3479,10.9128
129256,-0.3328,1.3934,10.8840
129294,-0.3496,1.4006,10.9535
129403,-0.2897,1.3551,10.8409
129442,-0.3089,1.3479,10.9152
129480,-0.2993,1.4030,10.8721
129518,-0.3184,1.4150,10.8912
129556,-0.3160,1.3623,10.9247
129594,-0.3065,1.4150,10.9343
129699,-0.3232,1.3551,10.8912
129738,-0.2442,1.4006,10.9032
129777,-0.2849,1.4198,11.0540
129815,-0.3496,1.4341,10.9104
129853,-0.2801,1.3623,10.8816
129891,-0.3807,1.3791,10.9990
129929,-0.2873,1.4078,10.9128
130038,-0.3376,1.4102,10.9319
130077,-0.2705,1.3623,10.8960
130115,-0.2610,1.3503,11.0014
130153,-0.2945,1.3408,10.9295
130192,-0.2777,1.3599,11.0325
130230,-0.3304,1.3671,10.9583
130342,-0.3472,1.3743,10.9319
130381,-0.3160,1.3192,10.9056
130419,-0.3472,1.3120,10.9271
130457,-0.2921,1.3958,10.9463
130495,-0.3184,1.4293,10.9271
130533,-0.2945,1.3934,10.9247
130643,-0.3304,1.3599,10.8888
130682,-0.3424,1.3575,10.9583
130720,-0.3017,1.4126,10.9200
130758,-0.3160,1.3024,10.9343
130796,-0.2945,1.3791,10.9774
130834,-0.3400,1.3575,10.8816
130946,-0.2921,1.3862,10.9056
130985,-0.3112,1.3360,10.8745
131024,-0.3112,1.3719,10.9439
131062,-0.2801,1.3982,10.9319
131100,-0.3400,1.2977,11.0492
131138,-0.2777,1.2929,10.9223
131246,-0.2586,1.3982,10.8314
131285,-0.3352,1.3527,10.9678
131323,-0.2634,1.3958,10.9271
131361,-0.3472,1.3001,10.9056
131400,-0.2849,1.3743,10.9894
131438,-0.3376,1.3647,10.9319
131546,-0.2825,1.3575,10.9415
131585,-0.2849,1.3551,11.0061
131623,-0.3711,1.3862,10.8984
131661,-0.3352,1.4317,10.9032
131699,-0.2753,1.3599,10.8649
131737,-0.2993,1.3096,11.0085
131844,-0.2945,1.4126,10.8984
131883,-0.3400,1.3934,11.0205
131921,-0.2490,1.4150,10.9702
131959,-0.3448,1.3264,10.8386
131997,-0.3472,1.4317,10.8553
132035,-0.3017,1.3886,10.8673
132073,-0.3496,1.3695,10.9535
132111,-0.3448,1.3982,10.9223
132220,-0.3352,1.3838,10.9104
132259,-0.3136,1.3910,10.8266
132297,-0.3424,1.3384,10.9104
132335,-0.3136,1.3767,10.9846
132373,-0.3136,1.3982,10.8936
132411,-0.2993,1.3503,10.8960
132508,-0.3208,1.4341,10.9367
132547,-0.2849,1.3886,10.9319
132586,-0.3041,1.3767,10.9152
132624,-0.3112,1.4126,10.9128
132662,-0.2993,1.3575,10.9080
132700,-0.3280,1.4653,10.8984
132810,-0.3280,1.4102,10.9702
132848,-0.3591,1.3503,10.8553
132886,-0.2897,1.3934,10.9559
132924,-0.3208,1.3096,10.9559
132963,-0.3591,1.3551,10.9104
133001,-0.2705,1.3551,10.9726
133137,-0.3519,1.3767,10.9846
133176,-0.2466,1.3647,10.9295
133214,-0.3089,1.4030,10.8864
133252,-0.2945,1.3072,10.9463
133290,-0.2921,1.3647,10.8793
133328,-0.2993,1.3671,10.9271
133468,-0.2849,1.4006,10.9990
133507,-0.3184,1.3408,10.9152
133545,-0.3136,1.2163,11.3054
133583,-0.3208,1.3551,10.8553
133621,-0.2705,1.3791,10.9200
133659,-0.3376,1.3575,10.8577
133764,-0.2634,1.4389,10.9080
133803,-0.2418,1.4389,10.8505
133842,-0.3136,1.3575,10.9678
133880,-0.2729,1.4724,10.1442
133918,-0.2251,0.9457,10.7404
133956,-0.3424,1.1468,10.9678
133994,-0.4405,1.5850,10.2113
134130,-0.2466,1.6209,10.0245
134169,-0.3424,1.3360,10.9678
134207,-0.3591,1.3623,10.9750
134245,-0.3424,1.3479,11.0205
134284,-0.3855,1.3144,10.8242
134322,-0.3065,1.3024,11.0014
134462,-0.2993,1.3815,11.0133
134501,-0.3519,1.4269,10.8769
134539,-0.2801,1.3862,10.9702
134577,-0.3735,1.3599,10.9487
134615,-0.3352,1.4269,10.8553
134653,-0.3376,1.3671,10.9463
134790,-0.3328,1.3455,10.9152
134829,-0.3017,1.3815,10.9630
134867,-0.3112,1.3647,10.9056
134905,-0.3926,1.3862,10.9822
134943,-0.2873,1.4006,11.0229
134981,-0.3376,1.3575,10.9343
135019,-0.3687,1.3982,10.9391
135156,-0.3089,1.3144,10.9200
135195,-0.3065,1.3743,10.9319
135233,-0.2969,1.3503,11.0181
135271,-0.3184,1.3958,10.9559
135309,-0.3711,1.3551,10.9654
135347,-0.2610,1.3551,10.9535
135487,-0.3352,1.3647,10.8673
135526,-0.3903,1.3623,10.8984
135564,-0.3280,1.3958,10.9056
135603,-0.3256,1.3312,10.9200
135641,-0.3424,1.3695,10.9846
135679,-0.3687,1.4533,10.9223
135788,-0.3328,1.3910,10.9223
135827,-0.2610,1.3815,10.9774
135865,-0.3328,1.3168,10.8936
135903,-0.3543,1.4700,10.7284
135941,-0.3041,1.4246,10.7883
135980,-0.3639,1.3288,11.0014
136018,-0.3424,1.3288,10.8816
136157,-0.3496,1.4030,10.9750
136196,-0.3759,1.3264,10.9200
136234,-0.3472,1.4054,10.9128
136272,-0.3663,1.3671,10.8673
136310,-0.2705,1.3072,10.9559
136348,-0.3184,1.2905,10.8721
136484,-0.3639,1.3886,10.9152
136523,-0.3017,1.3360,10.9798
136561,-0.2634,1.3958,11.0373
136599,-0.2753,1.3599,10.9535
136637,-0.3184,1.3527,10.8793
136675,-0.3831,1.3647,10.9654
136812,-0.3591,1.3503,10.9223
136851,-0.3065,1.3264,10.9415
136890,-0.3089,1.3647,11.0253
136928,-0.2993,1.3408,10.9295
136966,-0.3160,1.3527,10.9774
137004,-0.3136,1.3743,10.9678
137142,-0.1484,1.3144,11.3557
137181,-0.2753,1.3886,10.8601
137219,-0.3472,1.3575,10.9607
137257,-0.3065,1.4222,10.8529
137296,-0.3543,1.3360,10.9894
137334,-0.3280,1.3575,10.9247
137471,-0.3543,1.3767,10.9247
137510,-0.3232,1.3958,10.8649
137548,-0.3256,1.3240,10.9942
137586,-0.2849,1.3719,11.0157
137624,-0.3184,1.3288,10.8864
137662,-0.3280,1.3958,10.8864
137791,-0.2849,1.3360,10.9511
137830,-0.3112,1.4078,10.9176
137868,-0.3136,1.3072,10.9607
137906,-0.2801,1.3815,10.8697
137944,-0.2921,1.3240,10.9008
137982,-0.3807,1.2857,10.9654
138020,-0.2945,1.4030,10.9966
138129,-0.2777,1.3264,10.9391
138168,-0.3567,1.3719,10.8912
138206,-0.3448,1.3575,10.8840
138244,-0.2969,1.3719,10.8888
138282,-0.3112,1.3144,10.9678
138320,-0.3376,1.3886,10.9607
138358,-0.2777,1.3192,11.0636
138495,-0.3519,1.3336,10.9439
138534,-0.3376,1.3551,10.9607
138572,-0.2945,1.3791,10.8936
138611,-0.3065,1.3216,10.8457
138649,-0.3376,1.3551,10.9271
138687,-0.3208,1.3575,10.9343
138827,-0.3519,1.3862,10.9295
138866,-0.3472,1.4078,10.9966
138904,-0.3041,1.3838,10.8912
138942,-0.3232,1.3431,10.8816
138980,-0.3232,1.3958,11.0205
139019,-0.3496,1.3791,10.9798
139158,-0.3232,1.3695,10.8936
139197,-0.3136,1.3838,10.9894
139235,-0.2921,1.3192,10.9654
139273,-0.3184,1.3647,10.9415
139311,-0.3184,1.3743,10.9152
139349,-0.3639,1.3862,10.9607
139490,-0.3376,1.3647,10.9008
139529,-0.3280,1.3072,10.8936
139567,-0.2753,1.3743,10.8936
139605,-0.3089,1.3360,10.9774
139643,-0.2777,1.2977,10.9176
139681,-0.3448,1.4437,10.9463
139820,-0.3879,1.4102,10.9463
139859,-0.3328,1.3958,10.8625
139897,-0.3424,1.3120,10.9056
139936,-0.3112,1.3048,10.9774
139974,-0.4022,1.3647,10.9822
140012,-0.3208,1.4150,10.9008
140117,-0.3232,1.3958,10.9176
140156,-0.3232,1.3719,10.9008
140194,-0.3496,1.3791,10.8912
140232,-0.3160,1.3240,10.8409
140270,-0.3136,1.3671,10.9391
140309,-0.2873,1.3719,10.9391
140347,-0.3639,1.3767,10.8409
140482,-0.3352,1.3934,10.9176
140521,-0.2801,1.3312,10.8673
140559,-0.3136,1.3216,10.9008
140597,-0.2897,1.3312,11.0397
140635,-0.3232,1.3575,10.9343
140673,-0.3496,1.3815,10.9415
140812,-0.3280,1.2929,10.9295
140851,-0.3472,1.3862,10.9008
140889,-0.3472,1.3575,10.9822
140927,-0.3615,1.3647,10.8960
140965,-0.3831,1.3886,10.9487
141003,-0.2969,1.3862,10.9463
141041,-0.3400,1.3168,10.9056
141178,-0.3879,1.3910,10.9008
141217,-0.3352,1.3838,10.9247
141255,-0.3448,1.4150,11.0349
141293,-0.3280,1.3336,11.0397
141331,-0.3687,1.3288,10.9343
141369,-0.3567,1.4557,10.9798
141511,-0.3328,1.3192,10.9798
141550,-0.2945,1.3958,10.9200
141588,-0.3304,1.3743,10.9176
141627,-0.3376,1.3934,10.8457
141665,-0.3376,1.3503,10.9056
141703,-0.2801,1.3168,10.9391
141828,-0.2801,1.3958,10.9295
141867,-0.3496,1.4509,10.8673
141905,-0.3591,1.3791,11.0229
141943,-0.2705,1.3838,10.9032
141981,-0.2873,1.4174,10.8409
142020,-0.3376,1.3479,10.9391
142149,-0.3400,1.3886,10.9367
142188,-0.3831,1.4102,10.9176
142226,-0.3735,1.4150,10.9559
142264,-0.3017,1.3623,10.9439
142302,-0.3400,1.4030,10.8505
142340,-0.3448,1.3862,10.8984
142435,-0.3639,1.3719,10.9200
142474,-0.3735,1.3743,10.9152
142512,-0.3280,1.3168,10.9678
142550,-0.3160,1.4006,10.8960
142588,-0.3328,1.3288,11.0301
142626,-0.3472,1.3982,10.8840
142664,-0.3304,1.3503,10.8074
142789,-0.2969,1.3934,10.9104
142828,-0.3328,1.3815,10.8864
142867,-0.2969,1.3408,10.8864
142905,-0.2897,1.3767,10.9391
142943,-0.3160,1.3695,10.9104
142981,-0.2729,1.3336,10.9630
143106,-0.2729,1.3982,10.9535
143145,-0.2993,1.3695,10.9942
143183,-0.3280,1.2857,11.0109
143221,-0.3448,1.4365,10.8936
143259,-0.3735,1.3743,11.0061
143298,-0.3280,1.3862,10.8601
143423,-0.3543,1.3312,10.9654
143462,-0.2969,1.3815,10.9367
143500,-0.3663,1.3168,10.9798
143538,-0.3448,1.3408,10.9798
143576,-0.3328,1.3312,10.9750
143614,-0.3472,1.3982,10.9654
143653,-0.3136,1.3575,10.9990
143778,-0.3352,1.3360,10.9056
143817,-0.3448,1.4174,10.9391
143855,-0.3735,1.4174,10.8170
143893,-0.3280,1.3431,10.9128
143931,-0.2921,1.3575,10.9511
143969,-0.2801,1.4150,10.8840
144097,-0.3591,1.3408,10.8793
144136,-0.3208,1.3838,10.9200
144175,-0.3328,1.3312,10.9439
144213,-0.3041,1.3958,10.9056
144251,-0.3184,1.4461,10.9678
144289,-0.3615,1.3623,11.0014
144425,-0.3591,1.3719,10.9702
144464,-0.3663,1.3192,10.9463
144502,-0.3160,1.4030,10.9128
144540,-0.2777,1.3886,10.8960
144579,-0.3065,1.3312,10.9415
144617,-0.3424,1.3695,10.9080
144726,-0.3304,1.3719,10.8816
144765,-0.3089,1.3072,10.9056
144804,-0.3184,1.3934,10.9367
144842,-0.3089,1.4006,10.9607
144880,-0.3424,1.4222,10.9247
144918,-0.3687,1.3623,10.8673
144957,-0.3400,1.3623,10.9367
145092,-0.3400,1.3767,10.9200
145131,-0.3424,1.3934,10.9176
145170,-0.2682,1.3623,10.8840
145208,-0.3591,1.3647,10.8505
145247,-0.3065,1.3312,10.9774
145285,-0.3615,1.3384,10.9271
145420,-0.3160,1.3431,10.9032
145459,-0.3400,1.3671,10.9367
145498,-0.2993,1.3958,10.9798
145537,-0.3065,1.3719,10.9583
145576,-0.3136,1.3695,10.9511
145615,-0.2801,1.3647,10.8816
145751,-0.3041,1.3575,10.8793
145790,-0.3184,1.4030,10.8457
145829,-0.2729,1.3958,10.9870
145868,-0.3112,1.3479,11.0181
145907,-0.3232,1.3479,10.9223
145946,-0.3112,1.3671,10.9032
146083,-0.3448,1.3384,10.9702
146122,-0.3041,1.3647,10.8577
146161,-0.4214,1.3527,10.9032
146200,-0.3400,1.4054,10.8984
146239,-0.3136,1.3431,10.9104
146278,-0.3519,1.3958,10.9702
146417,-0.2682,1.3479,10.9535
146456,-0.3735,1.3910,10.9990
146495,-0.3424,1.3599,10.9535
146534,-0.2705,1.3408,10.8816
146573,-0.2729,1.3527,10.9822
146612,-0.2514,1.4102,10.9774
146652,-0.3400,1.4078,10.9176
146747,-0.3184,1.3647,10.9008
146786,-0.3280,1.3264,11.0085
146825,-0.3855,1.3599,10.9846
146864,-0.3280,1.3886,10.9271
146903,-0.2993,1.3743,10.9798
146942,-0.2801,1.3623,10.8338
146981,-0.3855,1.3838,10.9894
147107,-0.3041,1.3336,10.9798
147146,-0.3232,1.3575,10.9343
147185,-0.3184,1.3958,10.8912
147224,-0.3519,1.4150,10.8769
147263,-0.2729,1.4126,10.9846
147302,-0.3328,1.4293,10.9846
147428,-0.3591,1.3815,10.9463
147468,-0.2921,1.3599,10.9008
147507,-0.3017,1.3384,10.9535
147546,-0.3543,1.3815,10.9343
147585,-0.3448,1.4030,11.0133
147624,-0.2873,1.3431,10.9367
147750,-0.3591,1.2641,10.9654
147789,-0.2682,1.3862,10.9080
147828,-0.3472,1.3695,10.9942
147867,-0.3855,1.3767,10.9032
147906,-0.1389,1.9058,11.0636
147946,-0.2610,1.2977,10.9583
148074,-0.3136,1.4078,10.9942
148113,-0.3065,1.4006,10.9223
148152,-0.2753,1.3862,10.9439
148191,-0.3472,1.3838,10.9080
148230,-0.3496,1.3503,10.9319
148269,-0.3065,1.3671,10.9367
148395,-0.3112,1.4413,10.9319
148435,-0.3496,1.4102,10.9918
148475,-0.2873,1.4126,11.0085
148514,-0.3232,1.3288,10.9822
148553,-0.3208,1.3982,10.9942
148592,-0.2921,1.3862,10.9654
148718,-0.3041,1.3671,10.8601
148758,-0.3065,1.3958,10.9487
148797,-0.3615,1.3623,10.9271
148836,-0.2753,1.3743,10.8505
148875,-0.2682,1.3455,10.8745
148914,-0.3328,1.3815,10.8457
149020,-0.3136,1.3791,10.9223
149060,-0.2969,1.3886,10.9583
149099,-0.3591,1.3336,10.9223
149138,-0.3376,1.3455,10.9319
149177,-0.3639,1.3958,10.9463
149216,-0.3687,1.3479,10.9176
149256,-0.3089,1.4030,10.8601
149393,-0.2849,1.3886,10.9487
149433,-0.3065,1.3288,10.8769
149472,-0.3256,1.3791,10.9247
149511,-0.3184,1.3910,10.9630
149550,-0.3400,1.3455,10.9630
149589,-0.3496,1.3767,10.9080
149629,-0.2777,1.3671,10.8888
149770,-0.3855,1.3886,10.9559
149810,-0.3136,1.3551,10.9583
149849,-0.3041,1.4078,10.9295
149888,-0.2897,1.3791,10.9750
149927,-0.2729,1.2977,10.9439
149966,-0.2705,1.3599,10.9223
150107,-0.3496,1.3767,10.9223
150147,-0.2849,1.3910,10.9439
150187,-0.3472,1.3623,10.9583
150226,-0.3041,1.3982,10.9080
150265,-0.3256,1.3240,10.8840
150304,-0.3065,1.3767,10.8553
150442,-0.3496,1.3575,10.9918
150482,-0.3543,1.3551,10.9056
150521,-0.2849,1.4054,10.9535
150560,-0.3136,1.3503,10.9750
150600,-0.3352,1.3144,10.8888
150639,-0.3472,1.4054,10.9750
150780,-0.3065,1.3767,10.8984
150820,-0.2873,1.4389,10.8194
150859,-0.2897,1.3288,10.8673
150898,-0.3448,1.4030,10.8577
150937,-0.3639,1.3455,10.9343
150977,-0.3136,1.3216,10.9583
151086,-0.2969,1.3934,11.0205
151126,-0.2921,1.3455,10.9702
151165,-0.3735,1.4030,10.9056
151204,-0.2897,1.3862,10.9367
151243,-0.2897,1.3719,10.9774
151282,-0.3041,1.3743,10.8912
151321,-0.3184,1.3719,10.9104
151462,-0.3376,1.3455,10.9391
151502,-0.3184,1.3647,10.9846
151541,-0.3496,1.3551,10.9487
151580,-0.3041,1.3168,10.9415
151619,-0.2682,1.3408,10.9559
151658,-0.3136,1.3767,10.8984
151796,-0.3400,1.3958,10.9726
151836,-0.3089,1.3838,10.9032
151875,-0.3448,1.4174,10.8769
151914,-0.3232,1.3815,10.9152
151954,-0.3400,1.4293,10.9032
151993,-0.3136,1.3479,10.9702
152134,-0.2586,1.3719,10.9918
152174,-0.3974,1.3288,10.9535
152213,-0.2849,1.4030,11.0181
152252,-0.2993,1.3144,10.9271
152291,-0.3519,1.3767,10.9200
152330,-0.3783,1.3384,10.9630
152472,-0.2993,1.3815,10.9271
152512,-0.2849,1.4533,10.9008
152551,-0.3017,1.4078,10.9894
152590,-0.2945,1.3910,10.9391
152629,-0.3112,1.3647,10.9774
152668,-0.3639,1.3647,10.9583
152707,-0.3136,1.2857,10.9702
152838,-0.3041,1.3958,11.0038
152878,-0.3184,1.3479,10.9798
152917,-0.3352,1.3695,10.8840
152956,-0.2873,1.3958,10.8840
152995,-0.3304,1.4126,10.8505
153034,-0.2849,1.3791,10.9966
153172,-0.3184,1.3288,10.9080
153212,-0.3089,1.3312,10.8816
153251,-0.3280,1.3551,10.9032
153291,-0.3304,1.3767,10.9798
153330,-0.3328,1.4078,10.9391
153369,-0.3089,1.3168,10.9056
153476,-0.3065,1.3048,10.9439
153516,-0.2849,1.3431,10.9511
153555,-0.3065,1.3240,10.9798
153594,-0.3424,1.3886,10.9200
153633,-0.2538,1.3886,10.9080
153673,-0.2729,1.3048,10.9559
153712,-0.3280,1.3384,10.9822
153849,-0.2729,1.3982,10.9583
153889,-0.3256,1.3767,10.9032
153928,-0.2418,1.3934,10.9343
153967,-0.2849,1.4509,10.9511
154006,-0.3089,1.3360,11.0349
154046,-0.2825,1.4198,10.9176
154183,-0.3136,1.3767,11.0085
154223,-0.2490,1.3695,10.9391
154262,-0.3543,1.3934,10.9511
154301,-0.3424,1.3910,10.8290
154340,-0.3759,1.3240,10.9391
154379,-0.3232,1.3455,10.8673
154517,-0.3639,1.3838,10.9463
154557,-0.3112,1.3671,10.9128
154597,-0.3136,1.3671,10.8146
154636,-0.3663,1.3479,10.8170
154675,-0.3591,1.3767,10.8816
154714,-0.3184,1.4006,10.9583
154850,-0.2849,1.4030,10.9223
154890,-0.2729,1.3431,10.9367
154929,-0.3567,1.3815,10.8649
154968,-0.2658,1.3336,10.9654
155008,-0.2562,1.3862,10.9223
155047,-0.3065,1.4054,10.9415
155154,-0.3687,1.3408,10.9223
155194,-0.2370,1.5586,10.8936
155234,-0.1844,1.5778,10.9128
155273,-0.2322,1.6281,10.8026
155313,-0.3065,1.5203,10.8098
155352,-0.3448,1.5227,10.6973
155392,-0.3232,1.4581,11.1043
155532,-0.3041,1.4461,10.7308
155572,-0.3424,1.4389,10.8218
155611,-0.3567,1.3527,10.8721
155651,-0.2753,1.3934,10.9295
155690,-0.3472,1.3360,10.9439
155729,-0.3328,1.3982,10.9295
155769,-0.3041,1.3838,10.9032
155907,-0.3352,1.3264,10.9750
155947,-0.3089,1.3527,10.9152
155987,-0.3112,1.3767,10.8529
156026,-0.3184,1.3743,11.0349
156066,-0.3352,1.3599,10.9798
156105,-0.3687,1.3288,10.8745
156246,-0.3639,1.3312,10.9367
156286,-0.3615,1.3719,10.9607
156326,-0.3160,1.3767,10.9583
156365,-0.3472,1.3431,10.9463
156405,-0.3304,1.3599,10.9942
156444,-0.3017,1.3743,10.8529
156585,-0.3065,1.4222,10.9415
156625,-0.3376,1.3934,10.8936
156665,-0.3304,1.4557,10.8266
156705,-0.3304,1.4126,10.8960
156745,-0.3017,1.4509,10.9535
156785,-0.2442,1.4461,10.7907
156923,-0.3496,1.3599,10.9846
156963,-0.3687,1.3815,10.8697
157003,-0.3424,1.3431,10.9678
157043,-0.3376,1.3695,10.8194
157083,-0.3496,1.4557,10.8697
157123,-0.2131,1.3743,10.9319
157262,-0.3496,1.3431,10.9774
157302,-0.2849,1.3503,10.9750
157342,-0.3663,1.3910,10.9391
157382,-0.3184,1.3479,10.8936
157422,-0.3639,1.3264,10.8769
157462,-0.3519,1.3599,10.9583
157573,-0.3017,1.3910,10.9319
157613,-0.3280,1.4006,11.0397
157653,-0.3136,1.3240,10.9463
157693,-0.2945,1.3767,10.9056
157733,-0.3448,1.3982,10.9200
157773,-0.3232,1.3743,10.8840
157813,-0.2562,1.3048,11.0325
157951,-0.3328,1.3695,10.9774
157991,-0.2442,1.4174,10.8840
158031,-0.3352,1.3623,10.8290
158071,-0.3424,1.3647,11.0157
158111,-0.3280,1.3360,10.9223
158151,-0.2945,1.3743,10.9367
158281,-0.3496,1.4485,10.7835
158321,-0.2682,1.3647,10.9583
158361,-0.2897,1.3384,11.0253
158401,-0.2777,1.3503,11.0157
158441,-0.3352,1.3838,10.9487
158481,-0.2394,1.3575,10.7571
158623,-0.2801,1.3695,11.0014
158664,-0.3089,1.3671,10.9511
158704,-0.3424,1.3360,10.9247
158744,-0.2849,1.3647,10.9176
158784,-0.2562,1.3048,11.0038
158824,-0.2682,1.3934,10.8649
158864,-0.3328,1.3479,10.9535
159003,-0.3663,1.4246,10.8745
159043,-0.3184,1.4198,10.8433
159083,-0.2945,1.3240,10.9415
159123,-0.3304,1.4006,10.9654
159163,-0.2897,1.3072,10.9654
159203,-0.3400,1.3575,10.9247
159341,-0.3112,1.3623,10.8697
159381,-0.3136,1.4030,10.8745
159421,-0.3089,1.3408,10.7955
159461,-0.3472,1.3360,10.8912
159501,-0.3280,1.4461,10.9008
159541,-0.3496,1.3743,11.0468
159648,-0.3232,1.3503,11.0061
159689,-0.3783,1.3886,10.9056
159729,-0.3711,1.3695,10.9942
159769,-0.3400,1.3910,10.8577
159809,-0.3256,1.3982,10.8050
159850,-0.3160,1.3455,10.9415
159890,-0.3065,1.3360,10.8649
160028,-0.3232,1.4102,10.9630
160069,-0.2969,1.3336,11.0253
160109,-0.3591,1.2905,10.9271
160149,-0.3424,1.4317,10.9104
160189,-0.2921,1.4461,10.8386
160230,-0.3639,1.3647,10.9678
160367,-0.3472,1.3408,10.8840
160408,-0.2370,1.3791,10.9559
160448,-0.3304,1.3647,10.8362
160488,-0.2705,1.3599,10.9319
160528,-0.3352,1.4605,11.0109
160568,-0.3496,1.4150,10.9367
160679,-0.2801,1.3455,10.8553
160717,-0.3639,1.3264,10.9247
160755,-0.3184,1.4557,10.9056
160793,-0.3184,1.3791,10.8888
160831,-0.3256,1.4150,10.8984
160869,-0.2801,1.3360,10.9511
161006,-0.3591,1.3384,10.8960
161044,-0.3184,1.3168,10.8793
161082,-0.2753,1.3575,10.7763
161120,-0.4022,1.4317,10.8601
161158,-0.2969,1.3671,10.9152
161196,-0.2658,1.3886,10.8553
161335,-0.3735,1.3958,10.8649
161374,-0.3065,1.3192,11.0014
161412,-0.3591,1.4030,10.8601
161450,-0.2682,1.2737,10.8984
161488,-0.3089,1.4413,10.9032
161526,-0.3017,1.3527,10.9630
161565,-0.2562,1.4174,10.8649
161700,-0.3304,1.3551,10.8721
161739,-0.2729,1.3958,10.9559
161777,-0.3208,1.4102,10.8625
161815,-0.3136,1.4222,10.6997
161853,-0.3591,1.4102,10.9535
161891,-0.3089,1.3384,10.9080
161996,-0.3472,1.4126,10.9654
162035,-0.2682,1.3168,10.9654
162074,-0.3280,1.3767,10.9726
162112,-0.2322,1.4006,10.9798
162150,-0.3352,1.3431,11.0397
162188,-0.2945,1.3623,11.0085
162226,-0.3041,1.3384,10.9271
162363,-0.3184,1.3695,10.9008
162401,-0.2945,1.3455,10.9200
162439,-0.4190,1.3599,10.7859
162477,-0.3376,1.3240,10.9559
162515,-0.3280,1.3838,10.8864
162553,-0.2753,1.3551,10.8457
162689,-0.3280,1.3312,10.9367
162728,-0.3639,1.3455,10.9535
162766,-0.2993,1.3934,10.9822
162804,-0.3136,1.3144,11.0253
162842,-0.3208,1.3384,10.9511
162881,-0.3687,1.4533,10.8864
163018,-0.2777,1.3719,10.9654
163057,-0.3735,1.4030,10.9152
163095,-0.3639,1.3336,10.9415
163133,-0.3687,1.4317,10.9750
163171,-0.3472,1.3096,10.9918
163209,-0.3065,1.3767,10.9367
163347,-0.3136,1.3815,10.8649
163385,-0.2777,1.3360,10.9367
163423,-0.3041,1.3719,10.9559
163461,-0.3065,1.4150,10.9798
163499,-0.2993,1.3910,10.9678
163537,-0.3543,1.3599,10.8936
163665,-0.3089,1.3767,10.8577
163704,-0.2921,1.4150,10.8505
163742,-0.2993,1.3575,10.9774
163781,-0.3256,1.4054,10.8769
163819,-0.3376,1.3360,10.9128
163857,-0.3424,1.3192,10.8433
163962,-0.2825,1.3144,10.8840
164001,-0.3639,1.3575,10.9295
164039,-0.2586,1.3647,11.0612
164077,-0.2825,1.3934,10.8816
164115,-0.3208,1.4102,10.8553
164154,-0.3639,1.4222,10.9391
164192,-0.3926,1.3886,10.9511
164327,-0.3663,1.3647,10.9870
164366,-0.2729,1.3312,10.9846
164404,-0.3256,1.3312,10.9870
164442,-0.3112,1.4054,10.9990
164480,-0.2729,1.3695,10.8242
164518,-0.2993,1.3934,10.9104
164655,-0.3376,1.3815,10.8816
164694,-0.2825,1.3719,10.8601
164732,-0.3352,1.3958,10.9223
164770,-0.2705,1.3216,11.0205
164808,-0.3424,1.3862,10.9439
164846,-0.3783,1.4293,10.9630
164884,-0.3280,1.3743,10.9702
165022,-0.3184,1.4054,11.0014
165060,-0.2801,1.3695,10.8721
165098,-0.3089,1.3934,11.0061
165136,-0.2849,1.3695,10.8649
165174,-0.3328,1.3886,10.9463
165212,-0.3041,1.3527,10.9367
165348,-0.2801,1.3719,10.9750
165387,-0.3089,1.4078,10.9535
165425,-0.3112,1.3815,10.9702
165463,-0.2921,1.4293,10.9726
165502,-0.3184,1.3455,10.9774
165540,-0.3855,1.3958,10.8793
165677,-0.3328,1.4198,10.8816
165716,-0.3591,1.4150,10.9295
165754,-0.3280,1.3599,10.9152
165792,-0.3136,1.3216,10.9415
165830,-0.3328,1.3455,10.9487
165869,-0.3184,1.3431,10.9798
166005,-0.2634,1.3695,10.9463
166044,-0.3136,1.4269,10.9463
166082,-0.2921,1.3838,10.8745
166120,-0.2729,1.3527,10.9152
166158,-0.2682,1.3791,10.9870
166196,-0.3304,1.3623,10.9918
166301,-0.3280,1.4317,10.9056
166340,-0.2801,1.3623,10.9200
166379,-0.3232,1.4174,10.8769
166417,-0.3112,1.3695,10.9391
166455,-0.2705,1.3862,10.9247
166493,-0.3184,1.3599,10.9247
166531,-0.3232,1.4006,10.9822
166668,-0.2945,1.3647,10.9511
166707,-0.2921,1.3503,10.8409
166745,-0.3424,1.3838,11.0205
166784,-0.3041,1.3791,10.9894
166822,-0.2107,1.3408,11.0301
166860,-0.3136,1.3216,10.9391
166999,-0.3543,1.3575,10.9654
167038,-0.3208,1.3336,11.0181
167076,-0.3017,1.4174,11.0061
167114,-0.3496,1.3815,11.0253
167152,-0.2969,1.3838,10.9630
167191,-0.3232,1.3910,10.9607
167316,-0.2993,1.3719,10.9630
167355,-0.3807,1.3384,10.9966
167393,-0.3352,1.3575,10.9966
167431,-0.2993,1.3384,10.9487
167469,-0.3065,1.3312,10.8864
167507,-0.3448,1.4198,10.9463
167546,-0.2825,1.3455,10.9343
167674,-0.2753,1.3815,10.9367
167713,-0.2969,1.3695,10.9247
167751,-0.3232,1.3838,10.9702
167789,-0.3232,1.3910,10.9894
167827,-0.3783,1.3503,10.9918
167865,-0.3424,1.3695,10.9678
167993,-0.3208,1.4006,10.8625
168032,-0.2921,1.4269,10.8793
168071,-0.3208,1.4030,10.9415
168109,-0.2825,1.3862,10.8457
168147,-0.3472,1.4246,10.9966
168185,-0.3112,1.4293,10.8649
168285,-0.3328,1.3575,10.8769
168324,-0.3232,1.3408,10.9439
168362,-0.3376,1.4006,10.8745
168400,-0.2993,1.3934,10.8840
168439,-0.2801,1.3695,10.8793
168477,-0.3280,1.3599,10.9702
168515,-0.3328,1.3695,10.8386
168643,-0.2346,1.3719,10.8840
168682,-0.3065,1.3647,10.9654
168720,-0.3160,1.3671,10.9200
168758,-0.2897,1.3958,10.9223
168796,-0.3041,1.2929,10.9535
168835,-0.3136,1.4700,10.6518
168960,-0.3017,1.4365,10.9918
168999,-0.3089,1.3192,10.9032
169037,-0.3519,1.3791,10.9319
169075,-0.3448,1.3886,10.9343
169113,-0.2969,1.3743,11.0181
169151,-0.3280,1.3647,10.9463
169277,-0.2969,1.3575,10.8505
169316,-0.3543,1.3695,10.9415
169354,-0.3232,1.4293,10.9726
169392,-0.3543,1.4293,10.9798
169430,-0.2849,1.3312,10.9008
169468,-0.3376,1.3838,10.8218
169593,-0.2921,1.3360,10.9487
169632,-0.3735,1.3862,10.7978
169670,-0.3496,1.3695,10.9511
169709,-0.3089,1.4246,10.9726
169747,-0.3400,1.3336,10.9654
169785,-0.2634,1.3623,10.9583
169918,-0.3448,1.3791,10.8984
169957,-0.3280,1.3719,10.9343
169995,-0.3472,1.3647,10.9104
170033,-0.3136,1.4389,10.9104
170071,-0.2658,1.3360,10.9750
170109,-0.3160,1.4174,10.9654
170249,-0.3376,1.3791,10.9415
170288,-0.3496,1.3982,10.9104
170326,-0.2825,1.3479,10.9319
170364,-0.2873,1.3599,10.9607
170402,-0.3519,1.4365,10.8386
170440,-0.2969,1.3671,10.9152
170478,-0.3376,1.3982,10.9630
170591,-0.2945,1.3264,11.0133
170631,-0.3424,1.3336,10.8960
170669,-0.3615,1.3934,10.9319
170707,-0.4070,1.4485,10.9750
170745,-0.2921,1.3886,10.9247
170783,-0.3065,1.3767,10.9559
170918,-0.3184,1.3838,10.8840
170956,-0.2634,1.4078,10.9439
170994,-0.2801,1.3815,10.9583
171032,-0.3280,1.3384,10.9750
171070,-0.3400,1.3431,10.8912
171108,-0.2705,1.3527,10.9271
171245,-0.2945,1.4054,10.9247
171283,-0.3376,1.3144,10.9080
171321,-0.3783,1.3862,10.9152
171359,-0.3232,1.4222,10.9247
171397,-0.3041,1.4198,10.9391
171435,-0.3136,1.3695,10.8936
171575,-0.3376,1.3455,10.8529
171613,-0.3017,1.3910,10.9295
171651,-0.3256,1.3312,10.8816
171689,-0.3112,1.3503,11.0181
171727,-0.3136,1.3838,10.8984
171765,-0.2969,1.3815,10.8721
171902,-0.3160,1.3671,11.0038
171940,-0.3352,1.4246,10.9295
171978,-0.2993,1.3695,10.9607
172016,-0.3112,1.3408,10.9367
172054,-0.3184,1.3671,10.9056
172092,-0.3376,1.3815,10.9415
172220,-0.3519,1.3096,10.9559
172258,-0.2945,1.3886,10.9104
172296,-0.3041,1.3503,10.9295
172334,-0.2538,1.3671,10.8912
172372,-0.3376,1.4198,10.9630
172410,-0.2825,1.4102,10.8625
172507,-0.3304,1.3982,10.9654
172545,-0.3448,1.4150,10.9032
172583,-0.3615,1.3384,10.9343
172621,-0.2897,1.3886,10.9463
172659,-0.3184,1.3288,10.9894
172697,-0.3783,1.3312,10.9846
172735,-0.3735,1.4269,10.9367
172859,-0.3424,1.3815,10.8816
172898,-0.3424,1.3647,10.8673
172936,-0.3472,1.3910,10.9271
172974,-0.3352,1.3192,10.9726
173012,-0.2442,1.3479,10.9822
173050,-0.2945,1.3647,11.0133
173178,-0.3352,1.3479,10.9559
173217,-0.3567,1.3479,10.9726
173255,-0.2705,1.3312,10.9678
173293,-0.3256,1.3384,10.9750
173331,-0.3041,1.4246,10.9104
173369,-0.3184,1.3934,10.8936
173407,-0.3232,1.3934,10.9846
173536,-0.3112,1.3791,10.9176
173574,-0.2873,1.3695,10.8960
173612,-0.3663,1.4222,10.9702
173650,-0.3041,1.3479,10.9487
173688,-0.3280,1.2977,11.0014
173726,-0.3328,1.3575,10.9343
173851,-0.3352,1.3647,10.9463
173889,-0.2394,1.3886,10.9439
173927,-0.3136,1.3431,10.9559
173965,-0.3352,1.3671,10.9319
174003,-0.3543,1.3838,10.9846
174041,-0.3256,1.4269,10.9104
174166,-0.2682,1.3886,11.0133
174204,-0.3543,1.3479,10.9607
174242,-0.3639,1.2953,10.9032
174280,-0.3160,1.4102,10.9104
174318,-0.3017,1.3743,10.9463
174356,-0.2562,1.3431,10.9798
174484,-0.3352,1.3958,10.8769
174523,-0.3136,1.3360,10.9630
174561,-0.3184,1.3312,10.8769
174599,-0.3615,1.3336,10.8840
174637,-0.3065,1.3503,10.9176
174675,-0.3543,1.3575,10.9463
174769,-0.3807,1.3551,10.9463
174808,-0.3543,1.4581,10.9080
174847,-0.3448,1.3958,10.9247
174885,-0.3496,1.3719,10.9319
174923,-0.2777,1.3623,10.9726
174961,-0.3017,1.3838,10.9343
174999,-0.2993,1.4198,10.9654
175136,-0.3041,1.3479,10.9559
175175,-0.3184,1.3551,10.9104
175213,-0.2921,1.3623,10.9008
175251,-0.3304,1.3384,10.9056
175289,-0.3352,1.3503,10.9583
175327,-0.3998,1.3767,10.8793
175463,-0.3089,1.3599,10.8840
175502,-0.2682,1.3575,11.0133
175540,-0.2538,1.3623,10.9966
175578,-0.3448,1.4533,10.8529
175616,-0.3017,1.3719,10.9702
175654,-0.3711,1.3838,10.8984
175789,-0.3256,1.3623,10.9176
175828,-0.2825,1.4437,10.8816
175866,-0.3041,1.4222,10.9200
175904,-0.2945,1.3767,10.9152
175942,-0.3424,1.3312,10.9487
175980,-0.3663,1.3838,10.8936
176018,-0.2897,1.4078,10.8912
176158,-0.3041,1.4533,11.0660
176196,-0.2921,1.3479,10.8888
176234,-0.3065,1.4246,10.9918
176272,-0.2945,1.3599,10.8433
176310,-0.3735,1.3408,10.9846
176348,-0.2945,1.3527,10.9559
176484,-0.3663,1.4102,10.9415
176523,-0.2969,1.4054,10.9104
176561,-0.3472,1.3479,10.8769
176599,-0.2801,1.3551,10.9463
176637,-0.3807,1.4222,10.9319
176675,-0.3448,1.3791,10.8625
176780,-0.2921,1.3527,10.9247
176819,-0.3496,1.3838,10.9319
176857,-0.2705,1.3575,10.9247
176895,-0.3256,1.3958,10.9295
176933,-0.3472,1.3408,10.9319
176971,-0.2753,1.3695,10.9678
177009,-0.2490,1.4198,10.9200
177148,-0.3280,1.3120,10.8290
177187,-0.3496,1.3815,10.9774
177225,-0.2634,1.3767,10.9511
177263,-0.2705,1.3647,10.8577
177301,-0.3041,1.3479,10.9463
177340,-0.3017,1.3216,10.8577
177468,-0.3567,1.3503,10.9271
177507,-0.2945,1.4365,10.9559
177545,-0.3376,1.4078,10.9247
177583,-0.3879,1.3671,10.9439
177621,-0.3208,1.4222,10.9223
177659,-0.2897,1.4006,10.9535
177785,-0.3352,1.3695,10.9463
177823,-0.3735,1.3695,10.8362
177861,-0.3591,1.3767,10.9487
177899,-0.3567,1.3982,10.9343
177937,-0.2753,1.3479,10.9439
177975,-0.3424,1.3575,10.9463
178103,-0.2777,1.3910,10.9607
178142,-0.3280,1.3048,10.9894
178180,-0.3112,1.3479,10.9870
178219,-0.3280,1.4054,10.9152
178257,-0.2921,1.3791,10.9439
178295,-0.3136,1.3312,10.9223
178420,-0.3256,1.3791,10.9200
178459,-0.3136,1.4054,10.9415
178497,-0.3017,1.3910,10.8457
178535,-0.3184,1.3791,10.8888
178573,-0.3879,1.4150,10.9750
178611,-0.3472,1.3503,10.8721
178736,-0.3017,1.4054,10.9343
